time,seconds_elapsed,z,y,x
1784098586808423400,0.08542333984375,8.746050834655762,4.180950164794922,0.11700000613927841
1784098586818508300,0.09550830078125,8.779950141906738,4.1770501136779785,0.06705000251531601
1784098586828527600,0.105527587890625,8.73900032043457,4.150050163269043,0.08295000344514847
1784098586838677800,0.115677734375,8.655000686645508,4.122000217437744,0.18405000865459442
1784098586848762400,0.125762451171875,8.526000022888184,4.1170501708984375,0.30105000734329224
1784098586858770700,0.135770751953125,8.21505069732666,4.168950080871582,0.42600002884864807
1784098586868932000,0.14593212890625,7.948950290679932,4.258049964904785,0.4069500267505646
1784098586878912300,0.155912353515625,7.9800004959106445,4.300950050354004,0.16005000472068787
1784098586889101300,0.166101318359375,8.104949951171875,4.308000087738037,-0.016050001606345177
1784098586899114800,0.17611474609375,7.873050212860107,4.3969502449035645,-0.09495000541210175
1784098586909270800,0.186270751953125,7.573050498962402,4.603050231933594,-0.1360500007867813
1784098586919256600,0.196256591796875,7.903950214385986,4.693950176239014,0.032999999821186066
1784098586929327400,0.206327392578125,8.383049964904785,4.52400016784668,0.39195001125335693
1784098586939525000,0.216525146484375,8.679000854492188,4.371000289916992,0.7270500063896179
1784098586949530000,0.226530029296875,8.208000183105469,4.210050106048584,1.0270500183105469
1784098586959601000,0.236600830078125,7.659000396728516,3.9160501956939697,1.4310001134872437
1784098586969671700,0.246671630859375,7.855950355529785,3.4459502696990967,1.6990500688552856
1784098586979742500,0.256742431640625,7.92495059967041,3.2860500812530518,1.443000078201294
1784098586989874200,0.266874267578125,8.112000465393066,3.3169500827789307,0.7699500322341919
1784098586999945000,0.276945068359375,9.019050598144531,3.1810500621795654,0.04005000367760658
1784098587010046500,0.28704638671875,9.76395034790039,3.3169500827789307,-0.43800002336502075
1784098587020086800,0.297086669921875,9.559950828552246,3.6090002059936523,-0.6199500560760498
1784098587030287600,0.30728759765625,8.722050666809082,3.7380001544952393,-0.6199500560760498
1784098587040372200,0.317372314453125,7.558950424194336,4.147950172424316,-0.6220500469207764
1784098587050360000,0.327360107421875,7.068000316619873,5.5320000648498535,-1.0459500551223755
1784098587060430800,0.337430908203125,8.553000450134277,7.629000186920166,-2.1469500064849854
1784098587070532400,0.347532470703125,10.61400032043457,8.842950820922852,-3.201000213623047
1784098587080603100,0.35760302734375,10.693050384521484,7.507050514221191,-3.3829500675201416
1784098587090734800,0.36773486328125,10.092000007629395,5.091000080108643,-2.9730000495910645
1784098587100805600,0.3778056640625,9.81705093383789,4.23900032043457,-2.616000175476074
1784098587110876400,0.38787646484375,8.73705005645752,4.6870503425598145,-2.430000066757202
1784098587120978000,0.39797802734375,7.579950332641602,4.869000434875488,-2.080049991607666
1784098587131048700,0.408048583984375,7.1419501304626465,4.5169501304626465,-1.64205002784729
1784098587141150000,0.41814990234375,7.398000240325928,4.404000282287598,-1.4479501247406006
1784098587151190300,0.428190185546875,8.047050476074219,4.8420000076293945,-1.6470000743865967
1784098587161389000,0.43838916015625,8.620050430297852,5.307000160217285,-2.0250000953674316
1784098587171362300,0.4483623046875,9.019050598144531,5.424000263214111,-2.2519500255584717
1784098587181494000,0.458493896484375,9.127050399780273,5.356950283050537,-2.3460001945495605
1784098587191534300,0.468534423828125,8.683950424194336,5.331000328063965,-2.4180002212524414
1784098587201635800,0.4786357421875,7.954050540924072,5.218050479888916,-2.430000066757202
1784098587211812900,0.488812744140625,7.690950393676758,4.948050022125244,-2.371950149536133
1784098587221777400,0.49877734375,7.825050354003906,4.629000186920166,-2.2980000972747803
1784098587231878700,0.508878662109375,7.726950168609619,4.40595006942749,-2.2759501934051514
1784098587241949400,0.518949462890625,7.293000221252441,4.296000003814697,-2.260050058364868
1784098587252081200,0.5290810546875,7.209000110626221,4.023000240325928,-2.098950147628784
1784098587262236400,0.539236328125,7.509000301361084,3.7860002517700195,-1.9030500650405884
1784098587272321000,0.549321044921875,7.759950160980225,4.011000156402588,-1.8430501222610474
1784098587282293800,0.559293701171875,7.8510003089904785,4.372950077056885,-1.7830500602722168
1784098587292425500,0.569425537109375,7.675950527191162,4.5259504318237305,-1.5799500942230225
1784098587302465800,0.5794658203125,7.24500036239624,4.501950263977051,-1.3759500980377197
1784098587312660000,0.589659912109375,6.952950477600098,4.459050178527832,-1.350000023841858
1784098587322637800,0.599637939453125,7.116000175476074,4.654950141906738,-1.5169501304626465
1784098587332708900,0.609708984375,7.291050434112549,4.864050388336182,-1.6279500722885132
1784098587342840600,0.619840576171875,7.51800012588501,4.999950408935547,-1.4239500761032104
1784098587352881000,0.629880859375,8.071050643920898,5.296950340270996,-0.9979500770568848
1784098587363083800,0.640083740234375,8.599950790405273,5.761950492858887,-0.7060500383377075
1784098587373083400,0.65008349609375,8.822999954223633,6.244950294494629,-0.8209500312805176
1784098587383154200,0.660154296875,8.778000831604004,6.670950412750244,-1.1100000143051147
1784098587393225200,0.67022509765625,8.695950508117676,7.051950454711914,-1.258950114250183
1784098587403357000,0.68035693359375,8.707950592041016,7.35105037689209,-1.2490500211715698
1784098587413507300,0.69050732421875,8.608050346374512,7.489950180053711,-1.1770501136779785
1784098587423529000,0.700529052734375,7.975950241088867,7.390050411224365,-1.2300000190734863
1784098587433599700,0.710599853515625,6.781050205230713,7.171950340270996,-1.615950107574463
1784098587443670800,0.7206708984375,5.647950172424316,6.913050174713135,-2.0869500637054443
1784098587453772000,0.73077197265625,5.055000305175781,6.772050380706787,-2.0299501419067383
1784098587463931100,0.74093115234375,5.299050331115723,6.789000511169434,-1.1460000276565552
1784098587473944000,0.750944091796875,5.991000175476074,6.832050323486328,-0.10005000233650208
1784098587483984400,0.760984375,6.304050445556641,6.95205020904541,0.2770500183105469
1784098587494185200,0.771185302734375,6.084000110626221,6.907950401306152,-0.24795001745224
1784098587504270000,0.78127001953125,6.007050514221191,6.721950531005859,-1.6489500999450684
1784098587514354700,0.791354736328125,6.321000099182129,6.573000431060791,-3.315000057220459
1784098587524328700,0.80132861328125,6.39300012588501,6.375000476837158,-4.624950408935547
1784098587534429700,0.8114296875,6.288000106811523,6.235950469970703,-5.406000137329102
1784098587544531200,0.82153125,6.558000087738037,6.219000339508057,-5.530050277709961
1784098587559735800,0.83673583984375,8.22195053100586,5.769000053405762,-3.598050117492676
1784098587569820700,0.846820556640625,9.229950904846191,5.407050132751465,-2.7150001525878906
1784098587579905300,0.8569052734375,9.730050086975098,4.648050308227539,-1.9579501152038574
1784098587589990100,0.866990234375,9.808950424194336,4.039950370788574,-1.429050087928772
1784098587600074800,0.87707470703125,10.236000061035156,3.5520002841949463,-1.3950001001358032
1784098587610159600,0.88715966796875,10.719000816345215,3.334050178527832,-2.2360501289367676
1784098587620244200,0.897244140625,11.089950561523438,3.2400002479553223,-3.4260001182556152
1784098587630329000,0.9073291015625,11.3899507522583,3.1180500984191895,-4.231950283050537
1784098587640414000,0.9174140625,11.344050407409668,2.829000234603882,-3.9690001010894775
1784098587650498600,0.92749853515625,10.693050384521484,1.8850500583648682,-2.8650002479553223
1784098587660583400,0.93758349609375,9.931950569152832,0.8010000586509705,-1.2780001163482666
1784098587670668000,0.94766796875,9.630000114440918,-0.016950000077486038,0.8880000710487366
1784098587680753000,0.9577529296875,9.702000617980957,-0.43095001578330994,3.0139501094818115
1784098587690837500,0.96783740234375,9.726000785827637,-0.2440500110387802,3.907050132751465
1784098587700922400,0.97792236328125,10.045950889587402,0.4230000078678131,3.547950267791748
1784098587711007000,0.988007080078125,10.90095043182373,0.4300500154495239,2.760000228881836
1784098587721091800,0.998091796875,11.481000900268555,0.3270000219345093,2.0590500831604004
1784098587731176400,1.008176513671875,11.584050178527832,0.7339500188827515,1.5079500675201416
1784098587741261000,1.018260986328125,12.115050315856934,0.9109500646591187,1.6230000257492065
1784098587751346000,1.028345947265625,12.213000297546387,0.9250500202178955,1.8139500617980957
1784098587761430800,1.0384306640625,12.544050216674805,0.45795002579689026,2.0080502033233643
1784098587771515600,1.048515625,12.397950172424316,-0.14400000870227814,2.1730501651763916
1784098587781600300,1.058600341796875,12.028950691223145,-0.37095001339912415,2.0370001792907715
1784098587791684900,1.068684814453125,11.457000732421875,-0.05505000427365303,1.4170501232147217
1784098587801769700,1.078769775390625,11.16195011138916,0.9400500655174255,0.8689500689506531
1784098587811854300,1.088854248046875,11.416050910949707,1.5210000276565552,0.7150500416755676
1784098587821939200,1.098939208984375,11.713050842285156,1.593000054359436,0.853950023651123
1784098587832024000,1.109024169921875,11.397000312805176,1.3560000658035278,1.3159500360488892
1784098587842108700,1.119108642578125,10.284000396728516,1.1910001039505005,1.9390500783920288
1784098587852193300,1.129193359375,9.244050025939941,0.922950029373169,2.7240002155303955
1784098587862278100,1.139278076171875,8.208000183105469,0.9250500202178955,3.2820000648498535
1784098587872363000,1.149363037109375,7.879950523376465,1.3420500755310059,3.390000104904175
1784098587882447600,1.159447509765625,8.268000602722168,1.453950047492981,3.3390002250671387
1784098587892532500,1.169532470703125,9.08595085144043,1.4740500450134277,2.9640002250671387
1784098587902617000,1.1796171875,10.068000793457031,1.5049500465393066,2.3170502185821533
1784098587912702000,1.189701904296875,10.837050437927246,1.9399501085281372,1.426050066947937
1784098587922786800,1.199786865234375,10.89900016784668,2.7589502334594727,0.4230000078678131
1784098587932871400,1.209871337890625,25.30695152282715,1.1530500650405884,4.168050289154053
1784098587942953200,1.219953125,-0.27900001406669617,-14.181000709533691,5.535000324249268
1784098587953041000,1.230041015625,7.521000385284424,6.517950534820557,3.2340002059936523
1784098587963125500,1.24012548828125,6.7950005531311035,6.103950500488281,2.4030001163482666
1784098587973210400,1.25021044921875,11.926050186157227,1.4640001058578491,2.6860501766204834
1784098587983295000,1.260294921875,11.028000831604004,7.086000442504883,3.283950090408325
1784098587993380000,1.270380126953125,8.859000205993652,2.665950059890747,2.1730501651763916
1784098588003464700,1.280464599609375,9.180000305175781,5.047950267791748,2.5350000858306885
1784098588013549600,1.290549560546875,8.17905044555664,4.183950424194336,1.9459501504898071
1784098588023634200,1.30063427734375,8.409000396728516,4.521000385284424,2.3149502277374268
1784098588033719000,1.310718994140625,8.311050415039062,4.653000354766846,2.3310000896453857
1784098588043803600,1.3208037109375,8.62695026397705,4.5,2.2789502143859863
1784098588053888500,1.330888427734375,8.482950210571289,4.5,2.2480502128601074
1784098588063973000,1.34097314453125,8.575950622558594,4.52400016784668,2.302950143814087
1784098588074058000,1.35105810546875,8.526000022888184,4.477950096130371,2.202000141143799
1784098588084142600,1.361142578125,8.469000816345215,4.447050094604492,2.180999994277954
1784098588094227500,1.3712275390625,8.599950790405273,4.411050319671631,2.209050178527832
1784098588104312000,1.38131201171875,9.414000511169434,4.383000373840332,2.3910000324249268
1784098588114397000,1.39139697265625,10.561050415039062,4.159950256347656,1.981950044631958
1784098588124481800,1.401481689453125,7.183050155639648,4.669950008392334,2.6569502353668213
1784098588134566400,1.41156640625,7.849050521850586,4.573950290679932,2.6830501556396484
1784098588144651300,1.4216513671875,9.22800064086914,4.723050117492676,2.5060501098632812
1784098588154735900,1.43173583984375,7.915950298309326,4.03095006942749,2.272050142288208
1784098588164820700,1.44182080078125,7.944000244140625,3.501000165939331,1.3020000457763672
1784098588174905300,1.4519052734375,9.145950317382812,6.259950160980225,0.7699500322341919
1784098588184990200,1.461990234375,3.3330001831054688,5.826000213623047,1.3159500360488892
1784098588195074800,1.47207470703125,4.819950103759766,4.081050395965576,0.33195000886917114
1784098588205159700,1.48215966796875,6.927000522613525,5.455050468444824,-1.3759500980377197
1784098588215244300,1.492244384765625,7.992000579833984,4.468950271606445,-1.1509500741958618
1784098588225329200,1.5023291015625,9.841050148010254,2.142000198364258,4.707000255584717
1784098588235413800,1.512413818359375,11.344050407409668,5.091000080108643,10.375950813293457
1784098588245498600,1.52249853515625,2.4780001640319824,8.721000671386719,1.1440500020980835
1784098588255583500,1.53258349609375,11.100000381469727,2.814000129699707,7.780950546264648
1784098588265668000,1.542668212890625,9.661050796508789,8.082000732421875,1.3429501056671143
1784098588275753000,1.5527529296875,8.265000343322754,5.436000347137451,2.2170000076293945
1784098588285837600,1.562837646484375,7.758000373840332,5.251950263977051,2.3239500522613525
1784098588295922400,1.57292236328125,6.936000347137451,5.529000282287598,2.11395001411438
1784098588306007000,1.583007080078125,5.878050327301025,5.45805025100708,2.1570000648498535
1784098588316092000,1.593091796875,6.391050338745117,5.215950012207031,2.193000078201294
1784098588326176500,1.603176513671875,5.1220502853393555,5.0620503425598145,2.0179500579833984
1784098588336261400,1.613261474609375,3.702000141143799,5.074050426483154,1.9840500354766846
1784098588346346000,1.623345947265625,3.7039501667022705,5.00700044631958,1.7260501384735107
1784098588356430800,1.633430908203125,5.593050479888916,4.825050354003906,1.3549500703811646
1784098588366515500,1.643515380859375,15.682050704956055,4.300950050354004,1.981950044631958
1784098588376600000,1.65360009765625,18.663000106811523,8.604000091552734,0.3850500285625458
1784098588386685000,1.663684814453125,10.080000877380371,5.7300004959106445,-0.4540500342845917
1784098588396769800,1.673769775390625,5.851950168609619,5.247000217437744,1.672950029373169
1784098588406854400,1.6838544921875,8.575950622558594,5.557950496673584,1.2469500303268433
1784098588416939300,1.693939208984375,8.506950378417969,5.476950168609619,1.2400500774383545
1784098588427024000,1.70402392578125,8.169000625610352,5.44605016708374,1.264050006866455
1784098588437108700,1.714108642578125,4.6620001792907715,5.086050033569336,1.429050087928772
1784098588447193300,1.724193359375,2.7780001163482666,4.264950275421143,1.6630500555038452
1784098588457278200,1.7342783203125,0.4030500054359436,4.038000106811523,1.9320000410079956
1784098588467362800,1.74436279296875,3.0889501571655273,4.975950241088867,2.3359501361846924
1784098588477447700,1.75444775390625,14.442000389099121,7.030950546264648,-1.0549499988555908
1784098588487532500,1.764532470703125,-0.27195000648498535,5.247000217437744,0.687000036239624
1784098588497617200,1.7746171875,43.93605041503906,7.3560004234313965,-2.9160001277923584
1784098588507702000,1.784701904296875,-1.8780001401901245,1.90500009059906,0.4330500066280365
1784098588517786600,1.79478662109375,-2.4310500621795654,5.575050354003906,1.201050043106079
1784098588527871500,1.80487158203125,8.701050758361816,8.179950714111328,-2.533050060272217
1784098588537956000,1.8149560546875,19.249950408935547,6.075000286102295,-0.505050003528595
1784098588548041000,1.825041015625,3.8239502906799316,5.82105016708374,-1.2919501066207886
1784098588558125800,1.835125732421875,6.831000328063965,4.9360504150390625,1.503000020980835
1784098588568210400,1.84521044921875,8.742000579833984,5.613000392913818,-0.4230000078678131
1784098588578295300,1.85529541015625,8.91195011138916,5.568000316619873,-0.49995002150535583
1784098588588380000,1.8653798828125,7.710000514984131,5.272950172424316,0.4350000321865082
1784098588598464800,1.87546484375,8.313000679016113,5.4720001220703125,-0.28395000100135803
1784098588608549400,1.88554931640625,8.437950134277344,5.401950359344482,0.08295000344514847
1784098588618634200,1.89563427734375,7.806000232696533,5.404950141906738,-0.10500000417232513
1784098588628719000,1.905718994140625,8.554950714111328,5.424000263214111,-0.034950003027915955
1784098588638804000,1.915803955078125,7.987050533294678,5.422050476074219,-0.04005000367760658
1784098588648888600,1.925888671875,8.224050521850586,5.422050476074219,-0.06195000186562538
1784098588658973400,1.935973388671875,8.341950416564941,5.404950141906738,-0.05205000191926956
1784098588669058000,1.94605810546875,7.972950458526611,5.4120001792907715,-0.04500000178813934
1784098588679143000,1.956142822265625,8.404050827026367,5.407050132751465,-0.06405000388622284
1784098588689227800,1.966227783203125,8.088000297546387,5.407050132751465,-0.04500000178813934
1784098588699312400,1.9763125,8.20995044708252,5.404950141906738,-0.05205000191926956
1784098588709397200,1.986397216796875,8.232000350952148,5.4120001792907715,-0.0690000057220459
1784098588719481900,1.99648193359375,8.116950035095215,5.400000095367432,-0.034950003027915955
1784098588729566700,2.006566650390625,8.224050521850586,5.424000263214111,-0.05205000191926956
1784098588739651600,2.016651611328125,8.17199993133545,5.4120001792907715,-0.05700000375509262
1784098588749736200,2.026736083984375,8.155050277709961,5.422050476074219,-0.046950001269578934
1784098588759821000,2.036821044921875,8.19795036315918,5.422050476074219,-0.04500000178813934
1784098588769906000,2.046906005859375,8.152950286865234,5.424000263214111,-0.04500000178813934
1784098588779990500,2.056990478515625,8.181000709533691,5.424000263214111,-0.032999999821186066
1784098588790075400,2.067075439453125,8.17905044555664,5.424000263214111,-0.032999999821186066
1784098588800160000,2.077159912109375,8.1670503616333,5.436000347137451,-0.032999999821186066
1784098588810244900,2.087244873046875,8.193000793457031,5.4310503005981445,-0.028050001710653305
1784098588820329500,2.09732958984375,8.160000801086426,5.4340500831604,-0.028050001710653305
1784098588830414300,2.107414306640625,8.184000015258789,5.437950134277344,-0.028050001710653305
1784098588840499200,2.117499267578125,8.188950538635254,5.436000347137451,-0.028050001710653305
1784098588850583800,2.127583740234375,8.17905044555664,5.428950309753418,-0.022950001060962677
1784098588860668400,2.13766845703125,8.184000015258789,5.437950134277344,-0.019050000235438347
1784098588870753300,2.147753173828125,8.19795036315918,5.428950309753418,-0.022950001060962677
1784098588880838100,2.157838134765625,8.188950538635254,5.4310503005981445,-0.025950001552700996
1784098588890922800,2.1679228515625,8.200950622558594,5.419050216674805,-0.025950001552700996
1784098588901007600,2.178007568359375,8.181000709533691,5.4310503005981445,-0.032999999821186066
1784098588911092500,2.188092529296875,8.184000015258789,5.424000263214111,-0.037950001657009125
1784098588921177000,2.198177001953125,8.193000793457031,5.422050476074219,-0.034950003027915955
1784098588931262000,2.208261962890625,8.181000709533691,5.428950309753418,-0.046950001269578934
1784098588941346800,2.218346923828125,8.184000015258789,5.419050216674805,-0.04500000178813934
1784098588951431400,2.228431396484375,8.19105052947998,5.4120001792907715,-0.04500000178813934
1784098588961516300,2.238516357421875,8.193000793457031,5.413950443267822,-0.05505000427365303
1784098588971601000,2.248600830078125,8.18595027923584,5.413950443267822,-0.05895000323653221
1784098588981685800,2.258685791015625,8.18595027923584,5.416950225830078,-0.05205000191926956
1784098588991770400,2.268770263671875,8.181000709533691,5.413950443267822,-0.06405000388622284
1784098589001855200,2.278855224609375,8.188950538635254,5.4120001792907715,-0.06405000388622284
1784098589011940000,2.288940185546875,8.188950538635254,5.410050392150879,-0.05700000375509262
1784098589022025000,2.29902490234375,8.200950622558594,5.413950443267822,-0.06195000186562538
1784098589032109600,2.309109619140625,8.184000015258789,5.416950225830078,-0.046950001269578934
1784098589042194400,2.3191943359375,8.196000099182129,5.407050132751465,-0.05205000191926956
1784098589052279300,2.329279296875,8.19795036315918,5.419050216674805,-0.04500000178813934
1784098589062364200,2.3393642578125,8.208000183105469,5.4120001792907715,-0.04005000367760658
1784098589072448800,2.34944873046875,8.208000183105469,5.424000263214111,-0.046950001269578934
1784098589082533600,2.35953369140625,8.181000709533691,5.424000263214111,-0.025950001552700996
1784098589092618500,2.369618408203125,8.21505069732666,5.4340500831604,-0.05205000191926956
1784098589102703000,2.379703125,8.157000541687012,5.455050468444824,-0.009000000543892384
1784098589112788000,2.3897880859375,8.236050605773926,5.4120001792907715,-0.05700000375509262
1784098589122872800,2.399872802734375,8.128950119018555,5.425950050354004,0.009000000543892384
1784098589132957400,2.40995751953125,8.256000518798828,5.407050132751465,-0.037950001657009125
1784098589143042300,2.420042236328125,8.236050605773926,5.401950359344482,-0.013950000517070293
1784098589153127200,2.430127197265625,8.131050109863281,5.437950134277344,0
1784098589163211800,2.440211669921875,8.263050079345703,5.436000347137451,-0.05505000427365303
1784098589173296600,2.450296630859375,8.136000633239746,5.437950134277344,-0.009000000543892384
1784098589183381500,2.460381591796875,8.136000633239746,5.410050392150879,-0.05700000375509262
1784098589193466000,2.470466064453125,8.236050605773926,5.380950450897217,-0.022950001060962677
1784098589203550700,2.48055078125,8.19105052947998,5.38800048828125,-0.04500000178813934
1784098589213635600,2.490635498046875,8.148000717163086,5.416950225830078,-0.06195000186562538
1784098589223720400,2.500720458984375,8.232000350952148,5.4120001792907715,-0.04500000178813934
1784098589233805300,2.510805419921875,8.164950370788574,5.413950443267822,-0.05700000375509262
1784098589243890000,2.520889892578125,8.184000015258789,5.407050132751465,-0.046950001269578934
1784098589253974800,2.530974853515625,8.265000343322754,5.400000095367432,-0.07905000448226929
1784098589264059600,2.5410595703125,8.160000801086426,5.424000263214111,-0.04005000367760658
1784098589274144300,2.551144287109375,8.181000709533691,5.416950225830078,-0.0499500036239624
1784098589284229000,2.56122900390625,8.292000770568848,5.428950309753418,-0.05895000323653221
1784098589294314000,2.57131396484375,8.17199993133545,5.455050468444824,-0.07095000147819519
1784098589304398600,2.581398681640625,8.13794994354248,5.440950393676758,-0.034950003027915955
1784098589314483500,2.5914833984375,8.301000595092773,5.407050132751465,-0.05205000191926956
1784098589324568300,2.601568359375,8.20995044708252,5.416950225830078,-0.037950001657009125
1784098589334653000,2.61165283203125,8.134050369262695,5.425950050354004,-0.022950001060962677
1784098589344737800,2.62173779296875,8.45205020904541,5.407050132751465,-0.06195000186562538
1784098589354822700,2.63182275390625,8.104949951171875,5.5320000648498535,-0.021000001579523087
1784098589364907500,2.641907470703125,8.019000053405762,5.509950160980225,-0.0880500078201294
1784098589374992100,2.6519921875,8.284049987792969,5.368950366973877,-0.034950003027915955
1784098589385077000,2.662076904296875,8.13794994354248,5.350050449371338,-0.0019500000635161996
1784098589395161900,2.672161865234375,8.20995044708252,5.368950366973877,-0.031050002202391624
1784098589405246500,2.68224658203125,8.326950073242188,5.395050048828125,-0.028050001710653305
1784098589415331300,2.692331298828125,8.143050193786621,5.45805025100708,0.0070500001311302185
1784098589425416200,2.702416259765625,8.143050193786621,5.452950477600098,-0.0070500001311302185
1784098589435501000,2.7125009765625,8.260050773620605,5.422050476074219,-0.05700000375509262
1784098589445586000,2.7225859375,8.101950645446777,5.4340500831604,-0.010950000956654549
1784098589455670500,2.73267041015625,8.1670503616333,5.413950443267822,-0.05205000191926956
1784098589465755400,2.74275537109375,8.2339506149292,5.401950359344482,-0.04500000178813934
1784098589475840000,2.752840087890625,8.124000549316406,5.419050216674805,-0.031050002202391624
1784098589485925000,2.762925048828125,8.17199993133545,5.407050132751465,-0.04005000367760658
1784098589496009700,2.773009765625,8.229000091552734,5.398050308227539,-0.0499500036239624
1784098589506094600,2.783094482421875,8.164950370788574,5.4120001792907715,-0.031050002202391624
1784098589516179500,2.793179443359375,8.20995044708252,5.416950225830078,-0.05205000191926956
1784098589526264000,2.80326416015625,8.22705078125,5.4120001792907715,-0.05700000375509262
1784098589536349000,2.813348876953125,8.1670503616333,5.424000263214111,-0.034950003027915955
1784098589546433800,2.823433837890625,8.208000183105469,5.416950225830078,-0.06195000186562538
1784098589556518700,2.8335185546875,8.2339506149292,5.410050392150879,-0.05505000427365303
1784098589566603300,2.843603271484375,8.17905044555664,5.425950050354004,-0.0499500036239624
1784098589576688000,2.853688232421875,8.220000267028809,5.419050216674805,-0.06195000186562538
1784098589586773000,2.86377294921875,8.220000267028809,5.4340500831604,-0.05895000323653221
1784098589596857900,2.87385791015625,8.17905044555664,5.4310503005981445,-0.0499500036239624
1784098589606942700,2.883942626953125,8.20995044708252,5.437950134277344,-0.06195000186562538
1784098589617027300,2.89402734375,8.20995044708252,5.428950309753418,-0.05895000323653221
1784098589627112200,2.9041123046875,8.176950454711914,5.440950393676758,-0.046950001269578934
1784098589637197000,2.914197021484375,8.20995044708252,5.428950309753418,-0.05205000191926956
1784098589647282000,2.924281982421875,8.19105052947998,5.4310503005981445,-0.034950003027915955
1784098589657366500,2.934366455078125,8.1670503616333,5.4310503005981445,-0.037950001657009125
1784098589667451400,2.944451416015625,8.200950622558594,5.4310503005981445,-0.037950001657009125
1784098589677536300,2.954536376953125,8.188950538635254,5.424000263214111,-0.028050001710653305
1784098589687621000,2.96462109375,8.1670503616333,5.4340500831604,-0.025950001552700996
1784098589697705700,2.974705810546875,8.184000015258789,5.424000263214111,-0.032999999821186066
1784098589707790600,2.98479052734375,8.18595027923584,5.422050476074219,-0.016050001606345177
1784098589717875500,2.99487548828125,8.14995002746582,5.422050476074219,-0.013950000517070293
1784098589727960300,3.004960205078125,8.181000709533691,5.424000263214111,-0.028050001710653305
1784098589738045200,3.015045166015625,8.160000801086426,5.407050132751465,-0.021000001579523087
1784098589748130000,3.025130126953125,8.1670503616333,5.4120001792907715,-0.025950001552700996
1784098589758214700,3.035214599609375,8.176950454711914,5.419050216674805,-0.025950001552700996
1784098589768299500,3.045299560546875,8.176950454711914,5.4120001792907715,-0.034950003027915955
1784098589778384400,3.05538427734375,8.1670503616333,5.4120001792907715,-0.021000001579523087
1784098589788469200,3.06546923828125,8.19795036315918,5.4120001792907715,-0.04005000367760658
1784098589798554000,3.07555419921875,8.1739501953125,5.4120001792907715,-0.031050002202391624
1784098589808639000,3.085638916015625,8.18595027923584,5.407050132751465,-0.034950003027915955
1784098589818723800,3.095723876953125,8.18595027923584,5.401950359344482,-0.0499500036239624
1784098589828808400,3.105808349609375,8.19795036315918,5.407050132751465,-0.04500000178813934
1784098589838893300,3.115893310546875,8.193000793457031,5.419050216674805,-0.046950001269578934
1784098589848978200,3.125978271484375,8.208000183105469,5.419050216674805,-0.05505000427365303
1784098589859063000,3.13606298828125,8.196000099182129,5.422050476074219,-0.046950001269578934
1784098589869147600,3.146147705078125,8.19795036315918,5.4310503005981445,-0.05895000323653221
1784098589879232500,3.156232421875,8.200950622558594,5.4310503005981445,-0.05205000191926956
1784098589889317400,3.1663173828125,8.19105052947998,5.422050476074219,-0.0499500036239624
1784098589899402200,3.17640234375,8.155050277709961,5.047950267791748,0.037950001657009125
1784098589909487000,3.186487060546875,8.22195053100586,5.896050453186035,-0.12195000797510147
1784098589919572000,3.196572021484375,8.125950813293457,5.332950115203857,-0.15300001204013824
1784098589929656800,3.20665673828125,8.200950622558594,5.2759504318237305,0.0690000057220459
1784098589939741400,3.216741455078125,8.251049995422363,5.605950355529785,-0.18105000257492065
1784098589949826300,3.226826416015625,8.004000663757324,5.428950309753418,-0.09000000357627869
1784098589959911200,3.2369111328125,8.245950698852539,5.392950057983398,0.013950000517070293
1784098589969996000,3.24699609375,8.1739501953125,5.437950134277344,-0.0070500001311302185
1784098589980081000,3.257080810546875,8.134050369262695,5.452950477600098,-0.10200000554323196
1784098589990165500,3.26716552734375,8.1670503616333,5.4120001792907715,-0.04005000367760658
1784098590000250400,3.27725048828125,8.16195011138916,5.422050476074219,-0.0499500036239624
1784098590010335200,3.287335205078125,8.16195011138916,5.4310503005981445,-0.04305000230669975
1784098590020420000,3.297420166015625,8.17199993133545,5.410050392150879,-0.022950001060962677
1784098590030505000,3.3075048828125,8.181000709533691,5.422050476074219,-0.037950001657009125
1784098590040589800,3.31758984375,8.18595027923584,5.422050476074219,-0.019050000235438347
1784098590050674700,3.3276748046875,8.17905044555664,5.428950309753418,-0.004050000105053186
1784098590060759300,3.33775927734375,8.217000007629395,5.410050392150879,-0.0070500001311302185
1784098590070844200,3.34784423828125,8.1739501953125,5.44605016708374,-0.013950000517070293
1784098590080929000,3.357928955078125,8.21505069732666,5.413950443267822,0.0019500000635161996
1784098590091014000,3.368013916015625,8.19105052947998,5.44605016708374,-0.009000000543892384
1784098590101098800,3.3780986328125,8.184000015258789,5.3520002365112305,-0.07095000147819519
1784098590111183400,3.388183349609375,7.935000419616699,5.368950366973877,0.22905001044273376
1784098590121268200,3.398268310546875,9.064949989318848,5.06505012512207,-0.29205000400543213
1784098590131353000,3.40835302734375,7.255050182342529,5.938950061798096,0.12405000627040863
1784098590141438000,3.41843798828125,8.542950630187988,5.331000328063965,-0.0499500036239624
1784098590151522800,3.428522705078125,8.204999923706055,5.37600040435791,-0.16695000231266022
1784098590161607700,3.438607666015625,7.522950172424316,5.436000347137451,-0.032999999821186066
1784098590171692500,3.448692626953125,8.821050643920898,5.218050479888916,-0.1189500093460083
1784098590181777400,3.45877734375,7.63800048828125,5.556000232696533,0.0880500078201294
1784098590191862000,3.468862060546875,8.49000072479248,5.3020501136779785,-0.14595000445842743
1784098590201947000,3.47894677734375,8.083050727844238,5.455050468444824,-0.05895000323653221
1784098590212031700,3.48903173828125,8.089950561523438,5.485950469970703,-0.021000001579523087
1784098590222116600,3.49911669921875,8.212950706481934,5.503050327301025,-0.07395000010728836
1784098590232201500,3.509201416015625,8.196000099182129,5.440950393676758,-0.034950003027915955
1784098590242286000,3.5192861328125,8.101950645446777,5.473950386047363,-0.06705000251531601
1784098590252371000,3.529370849609375,8.257950782775879,5.413950443267822,-0.07605000585317612
1784098590262455800,3.539455810546875,8.113950729370117,5.4720001220703125,-0.0690000057220459
1784098590272540700,3.549540771484375,8.18595027923584,5.4340500831604,-0.05505000427365303
1784098590282625500,3.55962548828125,8.22195053100586,5.419050216674805,-0.07605000585317612
1784098590292710400,3.56971044921875,8.122050285339355,5.455050468444824,-0.032999999821186066
1784098590302795300,3.579795166015625,8.256000518798828,5.398050308227539,-0.06405000388622284
1784098590312879900,3.5898798828125,8.143050193786621,5.44605016708374,-0.05205000191926956
1784098590322964700,3.59996484375,8.124000549316406,5.428950309753418,-0.021000001579523087
1784098590333049600,3.610049560546875,8.1739501953125,5.407050132751465,-0.07095000147819519
1784098590343134500,3.620134521484375,8.1739501953125,5.389950275421143,-0.05205000191926956
1784098590353219300,3.63021923828125,8.119050025939941,5.37600040435791,-0.022950001060962677
1784098590363304200,3.64030419921875,8.181000709533691,5.386050224304199,-0.046950001269578934
1784098590373389000,3.65038916015625,8.164950370788574,5.400000095367432,-0.046950001269578934
1784098590383474000,3.660473876953125,8.140950202941895,5.401950359344482,-0.05505000427365303
1784098590393558500,3.67055859375,8.20995044708252,5.398050308227539,-0.0019500000635161996
1784098590403643400,3.680643310546875,8.208000183105469,5.413950443267822,-0.06195000186562538
1784098590413728300,3.690728271484375,8.143050193786621,5.400000095367432,0.009000000543892384
1784098590423813000,3.700813232421875,8.20995044708252,5.410050392150879,0.009000000543892384
1784098590433898000,3.71089794921875,8.229000091552734,5.38800048828125,-0.016050001606345177
1784098590443982800,3.72098291015625,8.188950538635254,5.422050476074219,-0.009000000543892384
1784098590454067500,3.7310673828125,8.143050193786621,5.419050216674805,0.004050000105053186
1784098590464152300,3.74115234375,8.1670503616333,5.413950443267822,-0.0070500001311302185
1784098590474237200,3.7512373046875,8.155050277709961,5.425950050354004,-0.0070500001311302185
1784098590484322000,3.761322021484375,8.140950202941895,5.422050476074219,-0.016050001606345177
1784098590494407000,3.771406982421875,8.16195011138916,5.4120001792907715,-0.028050001710653305
1784098590504491800,3.78149169921875,8.107049942016602,5.436000347137451,-0.019050000235438347
1784098590514576600,3.79157666015625,8.152950286865234,5.425950050354004,-0.034950003027915955
1784098590524661500,3.80166162109375,8.136000633239746,5.4310503005981445,-0.037950001657009125
1784098590534746000,3.81174609375,8.13794994354248,5.443050384521484,-0.06405000388622284
1784098590544831000,3.8218310546875,8.14995002746582,5.443050384521484,-0.04305000230669975
1784098590554915800,3.831915771484375,8.148000717163086,5.448000431060791,-0.07095000147819519
1784098590565000700,3.842000732421875,8.14995002746582,5.44605016708374,-0.06195000186562538
1784098590575085600,3.85208544921875,8.176950454711914,5.440950393676758,-0.09000000357627869
1784098590585170400,3.86217041015625,8.143050193786621,5.45805025100708,-0.07605000585317612
1784098590595255300,3.87225537109375,8.193000793457031,5.448000431060791,-0.07605000585317612
1784098590605340200,3.882340087890625,8.14995002746582,5.449950218200684,-0.07095000147819519
1784098590615424800,3.8924248046875,8.1739501953125,5.448000431060791,-0.07095000147819519
1784098590625509600,3.902509521484375,8.16195011138916,5.4310503005981445,-0.07605000585317612
1784098590635594500,3.912594482421875,8.155050277709961,5.4340500831604,-0.06405000388622284
1784098590645679400,3.922679443359375,8.164950370788574,5.419050216674805,-0.05895000323653221
1784098590655764200,3.93276416015625,8.13794994354248,5.407050132751465,-0.05205000191926956
1784098590665849000,3.94284912109375,8.16195011138916,5.410050392150879,-0.04500000178813934
1784098590675934000,3.952933837890625,8.140950202941895,5.410050392150879,-0.032999999821186066
1784098590686018600,3.9630185546875,8.143050193786621,5.398050308227539,-0.037950001657009125
1784098590696103400,3.973103515625,8.143050193786621,5.398050308227539,-0.022950001060962677
1784098590706188300,3.983188232421875,8.13794994354248,5.398050308227539,-0.028050001710653305
1784098590716273200,3.993273193359375,8.136000633239746,5.410050392150879,-0.016050001606345177
1784098590726358000,4.00335791015625,8.145000457763672,5.400000095367432,-0.021000001579523087
1784098590736443000,4.01344287109375,8.143050193786621,5.395050048828125,-0.013950000517070293
1784098590746527500,4.023527587890625,8.1670503616333,5.401950359344482,-0.021000001579523087
1784098590756612400,4.0336123046875,8.152950286865234,5.4120001792907715,-0.016050001606345177
1784098590766697200,4.043697265625,8.169000625610352,5.410050392150879,-0.019050000235438347
1784098590776782000,4.053781982421875,8.16195011138916,5.424000263214111,-0.013950000517070293
1784098590786867000,4.063866943359375,8.181000709533691,5.4310503005981445,-0.016050001606345177
1784098590796951800,4.073951904296875,8.184000015258789,5.4340500831604,-0.0070500001311302185
1784098590807036700,4.08403662109375,8.164950370788574,5.440950393676758,-0.016050001606345177
1784098590817121500,4.09412158203125,8.188950538635254,5.443050384521484,-0.022950001060962677
1784098590827206100,4.1042060546875,8.157000541687012,5.449950218200684,-0.019050000235438347
1784098590837291000,4.114291015625,8.17905044555664,5.44605016708374,-0.028050001710653305
1784098590847376000,4.1243759765625,8.148000717163086,5.448000431060791,-0.037950001657009125
1784098590857460700,4.134460693359375,8.169000625610352,5.443050384521484,-0.034950003027915955
1784098590867545600,4.144545654296875,8.181000709533691,5.4340500831604,-0.032999999821186066
1784098590877630500,4.15463037109375,8.006999969482422,5.461950302124023,-0.10695000737905502
1784098590887715300,4.16471533203125,8.268000602722168,5.359050273895264,-0.09300000220537186
1784098590897800200,4.17480029296875,8.039999961853027,5.500950336456299,-0.0690000057220459
1784098590907884800,4.184884765625,8.320050239562988,5.3710503578186035,-0.0070500001311302185
1784098590917969700,4.1949697265625,8.062050819396973,5.460000038146973,-0.0499500036239624
1784098590928054500,4.205054443359375,8.220000267028809,5.404950141906738,-0.15300001204013824
1784098590938139400,4.215139404296875,8.083050727844238,5.36400032043457,-0.05205000191926956
1784098590948224300,4.225224365234375,8.20305061340332,5.395050048828125,-0.06195000186562538
1784098590958309000,4.23530908203125,8.208000183105469,5.37600040435791,-0.0880500078201294
1784098590968394000,4.24539404296875,8.107049942016602,5.400000095367432,0.0070500001311302185
1784098590978478600,4.255478515625,8.17905044555664,5.401950359344482,-0.07605000585317612
1784098590988563500,4.2655634765625,8.100000381469727,5.419050216674805,-0.09000000357627869
1784098590998648300,4.2756484375,8.143050193786621,5.4120001792907715,-0.025950001552700996
1784098591008733200,4.285733154296875,8.088000297546387,5.4340500831604,-0.04005000367760658
1784098591018818000,4.295818115234375,8.17199993133545,5.410050392150879,-0.05205000191926956
1784098591028903000,4.30590283203125,8.100000381469727,5.443050384521484,0.010950000956654549
1784098591038987800,4.31598779296875,8.134050369262695,5.425950050354004,-0.021000001579523087
1784098591049072400,4.326072265625,8.176950454711914,5.443050384521484,-0.031050002202391624
1784098591059157200,4.3361572265625,8.124000549316406,5.448000431060791,0.004050000105053186
1784098591069242000,4.3462421875,8.152950286865234,5.416950225830078,-0.009000000543892384
1784098591079327000,4.356326904296875,8.160000801086426,5.44605016708374,-0.04005000367760658
1784098591089411800,4.366411865234375,8.1739501953125,5.401950359344482,-0.004050000105053186
1784098591099496700,4.37649658203125,8.196000099182129,5.4120001792907715,-0.025950001552700996
1784098591109581600,4.38658154296875,8.253000259399414,5.448000431060791,-0.009000000543892384
1784098591119666200,4.396666259765625,8.043000221252441,5.484000205993652,-0.037950001657009125
1784098591129751000,4.4067509765625,8.176950454711914,5.422050476074219,-0.031050002202391624
1784098591139836000,4.4168359375,8.200950622558594,5.410050392150879,-0.028050001710653305
1784098591149920800,4.426920654296875,8.140950202941895,5.410050392150879,-0.0499500036239624
1784098591160005600,4.437005615234375,8.1739501953125,5.416950225830078,-0.046950001269578934
1784098591170090500,4.447090576171875,8.176950454711914,5.413950443267822,-0.06405000388622284
1784098591180175400,4.45717529296875,8.119050025939941,5.419050216674805,-0.034950003027915955
1784098591190260200,4.46726025390625,8.176950454711914,5.416950225830078,-0.06195000186562538
1784098591200344800,4.4773447265625,8.176950454711914,5.400000095367432,-0.05505000427365303
1784098591210429700,4.4874296875,8.134050369262695,5.416950225830078,-0.05895000323653221
1784098591220514600,4.4975146484375,8.157000541687012,5.467050075531006,-0.05700000375509262
1784098591230599400,4.507599365234375,8.125950813293457,5.416950225830078,-0.10200000554323196
1784098591240684300,4.517684326171875,8.110050201416016,5.419050216674805,-0.004050000105053186
1784098591250769200,4.52776904296875,8.1670503616333,5.386050224304199,-0.12405000627040863
1784098591260853800,4.537853759765625,8.217000007629395,5.379000186920166,-0.05895000323653221
1784098591270938600,4.547938720703125,8.031000137329102,5.4340500831604,-0.019050000235438347
1784098591281023500,4.5580234375,8.304000854492188,5.374050140380859,-0.0880500078201294
1784098591291108400,4.5681083984375,8.047050476074219,5.448000431060791,-0.04500000178813934
1784098591301193000,4.57819287109375,8.204999923706055,5.389950275421143,-0.022950001060962677
1784098591311277800,4.58827783203125,8.089950561523438,5.44605016708374,-0.05205000191926956
1784098591321362700,4.59836279296875,8.212950706481934,5.407050132751465,-0.0499500036239624
1784098591331447600,4.608447509765625,8.131050109863281,5.419050216674805,-0.009000000543892384
1784098591341532400,4.618532470703125,8.122050285339355,5.4310503005981445,-0.028050001710653305
1784098591351617300,4.6286171875,8.217000007629395,5.419050216674805,-0.028050001710653305
1784098591361702100,4.6387021484375,8.077950477600098,5.44605016708374,-0.004050000105053186
1784098591371787000,4.648787109375,8.20305061340332,5.440950393676758,-0.025950001552700996
1784098591381871600,4.65887158203125,8.116950035095215,5.45805025100708,-0.0070500001311302185
1784098591391956700,4.668956787109375,8.184000015258789,5.436000347137451,-0.010950000956654549
1784098591402041300,4.679041259765625,8.13794994354248,5.449950218200684,-0.0070500001311302185
1784098591412126200,4.689126220703125,8.188950538635254,5.448000431060791,-0.019050000235438347
1784098591422211000,4.699211181640625,8.148000717163086,5.448000431060791,-0.004050000105053186
1784098591432295700,4.709295654296875,8.19795036315918,5.44605016708374,-0.013950000517070293
1784098591442380500,4.719380615234375,8.152950286865234,5.443050384521484,-0.022950001060962677
1784098591452465400,4.72946533203125,8.19105052947998,5.4340500831604,-0.019050000235438347
1784098591462550300,4.73955029296875,8.164950370788574,5.4340500831604,-0.037950001657009125
1784098591472635100,4.74963525390625,8.17199993133545,5.4120001792907715,-0.04305000230669975
1784098591482720000,4.759719970703125,8.164950370788574,5.416950225830078,-0.04005000367760658
1784098591492804600,4.7698046875,8.169000625610352,5.413950443267822,-0.0499500036239624
1784098591502889500,4.779889404296875,8.176950454711914,5.395050048828125,-0.05700000375509262
1784098591512974300,4.789974365234375,8.16195011138916,5.400000095367432,-0.05700000375509262
1784098591523059200,4.80005908203125,8.17199993133545,5.404950141906738,-0.0690000057220459
1784098591533144000,4.81014404296875,8.1739501953125,5.401950359344482,-0.06405000388622284
1784098591543229000,4.82022900390625,8.14995002746582,5.398050308227539,-0.0690000057220459
1784098591553313800,4.830313720703125,8.176950454711914,5.400000095367432,-0.07605000585317612
1784098591563398700,4.840398681640625,8.1670503616333,5.404950141906738,-0.07905000448226929
1784098591573483500,4.8504833984375,8.16195011138916,5.404950141906738,-0.07395000010728836
1784098591583568100,4.860568115234375,8.188950538635254,5.410050392150879,-0.06705000251531601
1784098591593653000,4.870653076171875,8.14995002746582,5.4120001792907715,-0.06405000388622284
1784098591603737900,4.88073779296875,8.188950538635254,5.416950225830078,-0.05205000191926956
1784098591613822700,4.89082275390625,8.17905044555664,5.425950050354004,-0.05895000323653221
1784098591623907600,4.900907470703125,8.184000015258789,5.416950225830078,-0.046950001269578934
1784098591633992400,4.910992431640625,8.181000709533691,5.425950050354004,-0.04005000367760658
1784098591644077000,4.9210771484375,8.208000183105469,5.425950050354004,-0.037950001657009125
1784098591654162200,4.931162109375,8.16195011138916,5.443050384521484,-0.028050001710653305
1784098591664247000,4.9412470703125,8.20995044708252,5.4310503005981445,-0.031050002202391624
1784098591674331600,4.95133154296875,8.181000709533691,5.443050384521484,-0.022950001060962677
1784098591684416500,4.96141650390625,8.19105052947998,5.440950393676758,-0.022950001060962677
1784098591694501400,4.97150146484375,8.18595027923584,5.4340500831604,-0.013950000517070293
1784098591704586200,4.981586181640625,8.188950538635254,5.4340500831604,-0.0019500000635161996
1784098591714671000,4.991671142578125,8.181000709533691,5.436000347137451,-0.016050001606345177
1784098591724756000,5.001755859375,8.184000015258789,5.436000347137451,-0.0019500000635161996
1784098591734840800,5.0118408203125,8.176950454711914,5.4340500831604,-0.021000001579523087
1784098591744925700,5.02192578125,8.196000099182129,5.4310503005981445,-0.022950001060962677
1784098591755010600,5.032010498046875,8.19105052947998,5.424000263214111,-0.025950001552700996
1784098591765095200,5.04209521484375,8.17905044555664,5.4340500831604,-0.019050000235438347
1784098591775180000,5.052179931640625,8.184000015258789,5.424000263214111,-0.022950001060962677
1784098591785265000,5.062264892578125,8.17905044555664,5.428950309753418,-0.028050001710653305
1784098591795349800,5.072349853515625,8.19105052947998,5.424000263214111,-0.028050001710653305
1784098591805434600,5.0824345703125,8.181000709533691,5.416950225830078,-0.037950001657009125
1784098591815519500,5.09251953125,8.19105052947998,5.413950443267822,-0.04500000178813934
1784098591825604400,5.102604248046875,8.17905044555664,5.413950443267822,-0.046950001269578934
1784098591835689200,5.112689208984375,8.196000099182129,5.4120001792907715,-0.05205000191926956
1784098591845773800,5.12277392578125,8.181000709533691,5.400000095367432,-0.0499500036239624
1784098591855858700,5.132858642578125,8.19105052947998,5.400000095367432,-0.06195000186562538
1784098591865943600,5.142943603515625,8.17905044555664,5.404950141906738,-0.05505000427365303
1784098591876028400,5.1530283203125,8.19795036315918,5.407050132751465,-0.05895000323653221
1784098591886113300,5.16311328125,8.17905044555664,5.404950141906738,-0.06705000251531601
1784098591896198100,5.1731982421875,8.19795036315918,5.400000095367432,-0.06405000388622284
1784098591906283000,5.183282958984375,8.19105052947998,5.410050392150879,-0.05895000323653221
1784098591916368000,5.193367919921875,8.19105052947998,5.4120001792907715,-0.0690000057220459
1784098591926452700,5.20345263671875,8.196000099182129,5.410050392150879,-0.05895000323653221
1784098591936537600,5.21353759765625,8.18595027923584,5.419050216674805,-0.05895000323653221
1784098591946622500,5.22362255859375,8.204999923706055,5.422050476074219,-0.05700000375509262
1784098591956707300,5.233707275390625,8.18595027923584,5.437950134277344,-0.05205000191926956
1784098591966792000,5.2437919921875,8.20305061340332,5.4340500831604,-0.046950001269578934
1784098591976876800,5.253876708984375,8.188950538635254,5.437950134277344,-0.04305000230669975
1784098591986961700,5.263961669921875,8.208000183105469,5.44605016708374,-0.034950003027915955
1784098591997046500,5.274046630859375,8.181000709533691,5.448000431060791,-0.034950003027915955
1784098592007131100,5.284131103515625,8.204999923706055,5.440950393676758,-0.025950001552700996
1784098592017216300,5.29421630859375,8.18595027923584,5.44605016708374,-0.019050000235438347
1784098592027300900,5.30430078125,8.200950622558594,5.440950393676758,-0.019050000235438347
1784098592037385700,5.3143857421875,8.184000015258789,5.436000347137451,-0.019050000235438347
1784098592047470600,5.324470703125,8.18595027923584,5.4310503005981445,-0.009000000543892384
1784098592057555500,5.334555419921875,8.19105052947998,5.436000347137451,-0.021000001579523087
1784098592067640300,5.344640380859375,8.1739501953125,5.424000263214111,-0.009000000543892384
1784098592077725200,5.35472509765625,8.164950370788574,5.422050476074219,-0.010950000956654549
1784098592087810000,5.36481005859375,8.181000709533691,5.4120001792907715,-0.010950000956654549
1784098592097895200,5.374895263671875,8.16195011138916,5.416950225830078,-0.025950001552700996
1784098592107979800,5.384979736328125,8.196000099182129,5.400000095367432,-0.028050001710653305
1784098592118064600,5.395064697265625,8.14995002746582,5.404950141906738,-0.034950003027915955
1784098592128149500,5.4051494140625,8.176950454711914,5.404950141906738,-0.04500000178813934
1784098592138234400,5.415234375,8.193000793457031,5.395050048828125,-0.05505000427365303
1784098592148319200,5.4253193359375,8.155050277709961,5.398050308227539,-0.0499500036239624
1784098592158404000,5.435404052734375,8.204999923706055,5.400000095367432,-0.0499500036239624
1784098592168489000,5.445489013671875,8.1739501953125,5.407050132751465,-0.06705000251531601
1784098592178573800,5.45557373046875,8.18595027923584,5.401950359344482,-0.05895000323653221
1784098592188658700,5.46565869140625,8.184000015258789,5.413950443267822,-0.06405000388622284
1784098592198743600,5.47574365234375,8.200950622558594,5.4120001792907715,-0.06195000186562538
1784098592208828400,5.485828369140625,8.17905044555664,5.424000263214111,-0.06405000388622284
1784098592218913300,5.495913330078125,8.20305061340332,5.419050216674805,-0.06705000251531601
1784098592228998100,5.505998046875,8.19105052947998,5.428950309753418,-0.05700000375509262
1784098592239083000,5.5160830078125,8.193000793457031,5.425950050354004,-0.0690000057220459
1784098592249168000,5.52616796875,8.19795036315918,5.4340500831604,-0.05895000323653221
1784098592259252700,5.536252685546875,8.188950538635254,5.4340500831604,-0.0499500036239624
1784098592269337600,5.546337646484375,8.176950454711914,5.437950134277344,-0.0499500036239624
1784098592279422500,5.55642236328125,8.188950538635254,5.440950393676758,-0.0499500036239624
1784098592289507000,5.566507080078125,8.184000015258789,5.436000347137451,-0.04005000367760658
1784098592299592200,5.57659228515625,8.181000709533691,5.443050384521484,-0.04500000178813934
1784098592309676800,5.5866767578125,8.18595027923584,5.4340500831604,-0.032999999821186066
1784098592319761700,5.59676171875,8.17905044555664,5.436000347137451,-0.025950001552700996
1784098592329846500,5.606846435546875,8.17199993133545,5.428950309753418,-0.031050002202391624
1784098592339931400,5.616931396484375,8.176950454711914,5.428950309753418,-0.034950003027915955
1784098592350016300,5.627016357421875,8.17199993133545,5.4310503005981445,-0.013950000517070293
1784098592360101000,5.63710107421875,8.16195011138916,5.422050476074219,-0.013950000517070293
1784098592370186000,5.64718603515625,8.181000709533691,5.419050216674805,-0.016050001606345177
1784098592380270800,5.657270751953125,8.160000801086426,5.424000263214111,-0.016050001606345177
1784098592390355700,5.667355712890625,8.1739501953125,5.419050216674805,-0.010950000956654549
1784098592400440600,5.677440673828125,8.157000541687012,5.413950443267822,-0.013950000517070293
1784098592410525400,5.687525390625,8.17199993133545,5.413950443267822,-0.013950000517070293
1784098592420610300,5.6976103515625,8.164950370788574,5.416950225830078,-0.016050001606345177
1784098592430695200,5.707695068359375,8.188950538635254,5.407050132751465,-0.028050001710653305
1784098592440780000,5.717780029296875,8.1670503616333,5.404950141906738,-0.032999999821186066
1784098592450865000,5.727864990234375,8.1739501953125,5.407050132751465,-0.04500000178813934
1784098592460949800,5.73794970703125,8.17905044555664,5.407050132751465,-0.04005000367760658
1784098592471034600,5.74803466796875,8.18595027923584,5.407050132751465,-0.04305000230669975
1784098592481119200,5.758119140625,8.17905044555664,5.401950359344482,-0.05205000191926956
1784098592491204400,5.768204345703125,8.18595027923584,5.410050392150879,-0.05505000427365303
1784098592501289200,5.778289306640625,8.184000015258789,5.416950225830078,-0.05895000323653221
1784098592511374000,5.7883740234375,8.181000709533691,5.416950225830078,-0.06405000388622284
1784098592521459000,5.798458984375,8.18595027923584,5.422050476074219,-0.06705000251531601
1784098592531543800,5.808543701171875,8.184000015258789,5.4340500831604,-0.06705000251531601
1784098592541628700,5.818628662109375,8.184000015258789,5.4340500831604,-0.0690000057220459
1784098592551713500,5.828713623046875,8.164950370788574,5.4310503005981445,-0.06405000388622284
1784098592561798400,5.83879833984375,8.181000709533691,5.4340500831604,-0.05700000375509262
1784098592571883300,5.84888330078125,8.17199993133545,5.440950393676758,-0.06195000186562538
1784098592581968100,5.858968017578125,8.176950454711914,5.4340500831604,-0.05505000427365303
1784098592592053000,5.869052978515625,8.16195011138916,5.44605016708374,-0.0499500036239624
1784098592602137900,5.879137939453125,8.1670503616333,5.437950134277344,-0.046950001269578934
1784098592612222700,5.88922265625,8.145000457763672,5.436000347137451,-0.04305000230669975
1784098592622307600,5.8993076171875,8.16195011138916,5.4310503005981445,-0.031050002202391624
1784098592632392400,5.909392333984375,8.148000717163086,5.428950309753418,-0.032999999821186066
1784098592642477300,5.919477294921875,8.16195011138916,5.424000263214111,-0.032999999821186066
1784098592652562200,5.929562255859375,8.145000457763672,5.424000263214111,-0.025950001552700996
1784098592662647000,5.93964697265625,8.16195011138916,5.419050216674805,-0.019050000235438347
1784098592672732000,5.94973193359375,8.152950286865234,5.416950225830078,-0.019050000235438347
1784098592682816800,5.959816650390625,8.155050277709961,5.416950225830078,-0.019050000235438347
1784098592692901600,5.969901611328125,8.157000541687012,5.407050132751465,-0.019050000235438347
1784098592702986500,5.979986572265625,8.1670503616333,5.407050132751465,-0.019050000235438347
1784098592713071400,5.9900712890625,8.1670503616333,5.401950359344482,-0.031050002202391624
1784098592723156200,6.00015625,8.1739501953125,5.410050392150879,-0.025950001552700996
1784098592733241000,6.010240966796875,8.1739501953125,5.404950141906738,-0.028050001710653305
1784098592743326000,6.020325927734375,8.160000801086426,5.413950443267822,-0.028050001710653305
1784098592753410800,6.030410888671875,8.181000709533691,5.416950225830078,-0.028050001710653305
1784098592763495700,6.04049560546875,8.1670503616333,5.416950225830078,-0.037950001657009125
1784098592773580500,6.05058056640625,8.18595027923584,5.413950443267822,-0.04005000367760658
1784098592783665400,6.06066552734375,8.17905044555664,5.416950225830078,-0.0499500036239624
1784098592793750300,6.070750244140625,8.17905044555664,5.413950443267822,-0.046950001269578934
1784098592803835100,6.080835205078125,8.176950454711914,5.419050216674805,-0.05205000191926956
1784098592813920000,6.090919921875,8.176950454711914,5.416950225830078,-0.05205000191926956
1784098592824004900,6.1010048828125,8.1670503616333,5.424000263214111,-0.0499500036239624
1784098592834089700,6.11108984375,8.16195011138916,5.419050216674805,-0.05895000323653221
1784098592844174600,6.121174560546875,8.1670503616333,5.416950225830078,-0.05895000323653221
1784098592854259500,6.131259521484375,8.164950370788574,5.436000347137451,-0.05700000375509262
1784098592864344300,6.14134423828125,8.16195011138916,5.425950050354004,-0.06195000186562538
1784098592874429200,6.15142919921875,8.155050277709961,5.425950050354004,-0.05505000427365303
1784098592884514000,6.16151416015625,8.148000717163086,5.424000263214111,-0.05205000191926956
1784098592894599000,6.171598876953125,8.14995002746582,5.4310503005981445,-0.05205000191926956
1784098592904683800,6.181683837890625,8.152950286865234,5.437950134277344,-0.05205000191926956
1784098592914768600,6.1917685546875,8.148000717163086,5.4340500831604,-0.046950001269578934
1784098592924853500,6.201853515625,8.14995002746582,5.428950309753418,-0.04500000178813934
1784098592934938400,6.2119384765625,8.136000633239746,5.4340500831604,-0.04500000178813934
1784098592945023200,6.222023193359375,8.16195011138916,5.425950050354004,-0.04005000367760658
1784098592955108000,6.232108154296875,8.145000457763672,5.428950309753418,-0.034950003027915955
1784098592965193000,6.24219287109375,8.155050277709961,5.425950050354004,-0.032999999821186066
1784098592975277800,6.25227783203125,8.157000541687012,5.422050476074219,-0.028050001710653305
1784098592985362700,6.26236279296875,8.160000801086426,5.419050216674805,-0.028050001710653305
1784098592995447600,6.272447509765625,8.16195011138916,5.424000263214111,-0.034950003027915955
1784098593005532400,6.282532470703125,8.16195011138916,5.413950443267822,-0.021000001579523087
1784098593015617300,6.2926171875,8.1670503616333,5.410050392150879,-0.021000001579523087
1784098593025702100,6.3027021484375,8.160000801086426,5.410050392150879,-0.016050001606345177
1784098593035787000,6.312787109375,8.17199993133545,5.416950225830078,-0.025950001552700996
1784098593045871900,6.322871826171875,8.1739501953125,5.4120001792907715,-0.032999999821186066
1784098593055957000,6.33295703125,8.169000625610352,5.407050132751465,-0.031050002202391624
1784098593066041900,6.343041748046875,8.1670503616333,5.410050392150879,-0.034950003027915955
1784098593076126700,6.353126708984375,8.169000625610352,5.419050216674805,-0.032999999821186066
1784098593086211600,6.363211669921875,8.1670503616333,5.410050392150879,-0.034950003027915955
1784098593096296400,6.37329638671875,8.169000625610352,5.419050216674805,-0.037950001657009125
1784098593106381300,6.38338134765625,8.1739501953125,5.422050476074219,-0.04500000178813934
1784098593116466200,6.393466064453125,8.1670503616333,5.428950309753418,-0.046950001269578934
1784098593126551000,6.403551025390625,8.160000801086426,5.425950050354004,-0.0499500036239624
1784098593136636000,6.413635986328125,8.1670503616333,5.419050216674805,-0.0499500036239624
1784098593146720800,6.423720703125,8.152950286865234,5.425950050354004,-0.0499500036239624
1784098593156805600,6.4338056640625,8.16195011138916,5.4310503005981445,-0.05505000427365303
1784098593166890500,6.443890380859375,8.14995002746582,5.443050384521484,-0.05895000323653221
1784098593176975400,6.453975341796875,8.145000457763672,5.4310503005981445,-0.05505000427365303
1784098593187060200,6.464060302734375,8.148000717163086,5.4340500831604,-0.05895000323653221
1784098593197145000,6.47414501953125,8.140950202941895,5.4310503005981445,-0.05505000427365303
1784098593207230000,6.48422998046875,8.14995002746582,5.424000263214111,-0.0499500036239624
1784098593217314800,6.494314697265625,8.13794994354248,5.4340500831604,-0.0499500036239624
1784098593227399700,6.504399658203125,8.157000541687012,5.4310503005981445,-0.0499500036239624
1784098593237484500,6.514484619140625,8.136000633239746,5.428950309753418,-0.04500000178813934
1784098593247569400,6.5245693359375,8.152950286865234,5.422050476074219,-0.04500000178813934
1784098593257654300,6.534654296875,8.140950202941895,5.419050216674805,-0.037950001657009125
1784098593267739100,6.5447392578125,8.14995002746582,5.424000263214111,-0.032999999821186066
1784098593277824000,6.554823974609375,8.152950286865234,5.425950050354004,-0.031050002202391624
1784098593287908600,6.56490869140625,8.155050277709961,5.416950225830078,-0.04005000367760658
1784098593297993500,6.574993408203125,8.152950286865234,5.428950309753418,-0.037950001657009125
1784098593308078300,6.585078369140625,8.1739501953125,5.416950225830078,-0.028050001710653305
1784098593318163500,6.59516357421875,8.160000801086426,5.416950225830078,-0.028050001710653305
1784098593328248300,6.605248291015625,8.1739501953125,5.410050392150879,-0.032999999821186066
1784098593338333000,6.6153330078125,8.169000625610352,5.424000263214111,-0.025950001552700996
1784098593348418000,6.62541796875,8.17905044555664,5.404950141906738,-0.028050001710653305
1784098593358502700,6.635502685546875,8.17905044555664,5.4120001792907715,-0.028050001710653305
1784098593368587500,6.64558740234375,8.1739501953125,5.4120001792907715,-0.025950001552700996
1784098593378672600,6.655672607421875,8.176950454711914,5.416950225830078,-0.025950001552700996
1784098593388757500,6.665757568359375,8.176950454711914,5.410050392150879,-0.031050002202391624
1784098593398842400,6.67584228515625,8.164950370788574,5.419050216674805,-0.031050002202391624
1784098593408927000,6.685927001953125,8.164950370788574,5.419050216674805,-0.034950003027915955
1784098593419012000,6.69601220703125,8.164950370788574,5.4120001792907715,-0.037950001657009125
1784098593429097000,6.706096923828125,8.164950370788574,5.416950225830078,-0.04005000367760658
1784098593439181800,6.716181884765625,8.148000717163086,5.422050476074219,-0.046950001269578934
1784098593449266700,6.7262666015625,8.152950286865234,5.425950050354004,-0.031050002202391624
1784098593459351600,6.7363515625,8.169000625610352,5.4310503005981445,-0.04500000178813934
1784098593469436400,6.7464365234375,8.196000099182129,5.436000347137451,-0.05505000427365303
1784098593479521300,6.756521240234375,8.080950736999512,5.448000431060791,-0.04305000230669975
1784098593489606100,6.766606201171875,8.188950538635254,5.4310503005981445,-0.06405000388622284
1784098593499691000,6.77669091796875,8.155050277709961,5.440950393676758,-0.034950003027915955
1784098593509776000,6.78677587890625,8.125950813293457,5.448000431060791,-0.06405000388622284
1784098593519860700,6.79686083984375,8.236050605773926,5.422050476074219,-0.05505000427365303
1784098593529945600,6.806945556640625,8.124000549316406,5.440950393676758,-0.04305000230669975
1784098593540030500,6.817030517578125,8.188950538635254,5.424000263214111,-0.04500000178813934
1784098593550115300,6.827115234375,8.20305061340332,5.422050476074219,-0.05505000427365303
1784098593560200200,6.8372001953125,8.176950454711914,5.416950225830078,-0.04005000367760658
1784098593570285300,6.847285400390625,8.1739501953125,5.413950443267822,-0.046950001269578934
1784098593580370000,6.857369873046875,8.200950622558594,5.407050132751465,-0.04500000178813934
1784098593590454800,6.867454833984375,8.1670503616333,5.410050392150879,-0.04005000367760658
1784098593600539600,6.87753955078125,8.169000625610352,5.398050308227539,-0.04500000178813934
1784098593610624800,6.887624755859375,8.188950538635254,5.395050048828125,-0.05205000191926956
1784098593620709600,6.897709716796875,8.169000625610352,5.395050048828125,-0.037950001657009125
1784098593630794500,6.90779443359375,8.17199993133545,5.392950057983398,-0.04305000230669975
1784098593640879400,6.91787939453125,8.17199993133545,5.38800048828125,-0.05205000191926956
1784098593650964200,6.927964111328125,8.157000541687012,5.395050048828125,-0.04005000367760658
1784098593661049000,6.938049072265625,8.145000457763672,5.4120001792907715,-0.0499500036239624
1784098593671134000,6.948134033203125,8.17199993133545,5.400000095367432,-0.05205000191926956
1784098593681218800,6.95821875,8.140950202941895,5.410050392150879,-0.0499500036239624
1784098593691303700,6.9683037109375,8.152950286865234,5.407050132751465,-0.06195000186562538
1784098593701388500,6.978388427734375,8.169000625610352,5.416950225830078,-0.05505000427365303
1784098593711473400,6.988473388671875,8.145000457763672,5.422050476074219,-0.05700000375509262
1784098593721558300,6.998558349609375,8.143050193786621,5.4310503005981445,-0.0499500036239624
1784098593731643100,7.00864306640625,8.164950370788574,5.4340500831604,-0.05205000191926956
1784098593741728000,7.01872802734375,8.152950286865234,5.449950218200684,-0.04005000367760658
1784098593751812900,7.028812744140625,8.160000801086426,5.443050384521484,-0.04500000178813934
1784098593761897700,7.038897705078125,8.1670503616333,5.452950477600098,-0.04005000367760658
1784098593771982600,7.048982666015625,8.145000457763672,5.449950218200684,-0.019050000235438347
1784098593782067500,7.0590673828125,8.1739501953125,5.45805025100708,-0.028050001710653305
1784098593792152300,7.06915234375,8.160000801086426,5.449950218200684,-0.009000000543892384
1784098593802237200,7.0792373046875,8.169000625610352,5.448000431060791,-0.0019500000635161996
1784098593812322000,7.089322021484375,8.157000541687012,5.45805025100708,-0.0019500000635161996
1784098593822407000,7.099406982421875,8.169000625610352,5.443050384521484,-0.0070500001311302185
1784098593832491800,7.10949169921875,8.14995002746582,5.4340500831604,0.004050000105053186
1784098593842576600,7.11957666015625,8.1739501953125,5.425950050354004,0
1784098593852661500,7.12966162109375,8.16195011138916,5.422050476074219,-0.009000000543892384
1784098593862746400,7.139746337890625,8.164950370788574,5.4120001792907715,-0.010950000956654549
1784098593872831200,7.149831298828125,8.157000541687012,5.404950141906738,-0.010950000956654549
1784098593882916000,7.159916015625,8.17905044555664,5.395050048828125,-0.009000000543892384
1784098593893001000,7.1700009765625,8.17905044555664,5.395050048828125,-0.032999999821186066
1784098593903085800,7.1800859375,8.176950454711914,5.398050308227539,-0.025950001552700996
1784098593913170700,7.190170654296875,8.188950538635254,5.404950141906738,-0.032999999821186066
1784098593923255600,7.200255615234375,8.19105052947998,5.392950057983398,-0.031050002202391624
1784098593933340400,7.21034033203125,8.1739501953125,5.4120001792907715,-0.05205000191926956
1784098593943425300,7.22042529296875,8.188950538635254,5.395050048828125,-0.04500000178813934
1784098593953510100,7.23051025390625,8.160000801086426,5.4120001792907715,-0.05205000191926956
1784098593963595000,7.240594970703125,8.17905044555664,5.400000095367432,-0.06405000388622284
1784098593973679900,7.250679931640625,8.148000717163086,5.413950443267822,-0.06705000251531601
1784098593983764700,7.2607646484375,8.152950286865234,5.416950225830078,-0.07605000585317612
1784098593993849600,7.270849609375,8.155050277709961,5.425950050354004,-0.0880500078201294
1784098594003934500,7.2809345703125,8.145000457763672,5.419050216674805,-0.08595000207424164
1784098594014019300,7.291019287109375,8.145000457763672,5.428950309753418,-0.10005000233650208
1784098594024104200,7.301104248046875,8.110050201416016,5.437950134277344,-0.10005000233650208
1784098594034189000,7.31118896484375,8.128950119018555,5.425950050354004,-0.10695000737905502
1784098594044274200,7.321274169921875,8.128950119018555,5.437950134277344,-0.10200000554323196
1784098594054359000,7.331359130859375,8.128950119018555,5.4340500831604,-0.1099500060081482
1784098594064444000,7.34144384765625,8.125950813293457,5.448000431060791,-0.10005000233650208
1784098594074528800,7.35152880859375,8.14995002746582,5.437950134277344,-0.09495000541210175
1784098594084613600,7.361613525390625,8.125950813293457,5.443050384521484,-0.08295000344514847
1784098594094698500,7.371698486328125,8.145000457763672,5.436000347137451,-0.07095000147819519
1784098594104783400,7.381783447265625,8.164950370788574,5.428950309753418,-0.05505000427365303
1784098594114868200,7.3918681640625,8.152950286865234,5.419050216674805,-0.028050001710653305
1784098594124953000,7.401953125,8.176950454711914,5.425950050354004,-0.019050000235438347
1784098594135038000,7.412037841796875,8.17199993133545,5.416950225830078,0.009000000543892384
1784098594145122800,7.422122802734375,8.18595027923584,5.4120001792907715,0.032999999821186066
1784098594155207700,7.432207763671875,8.18595027923584,5.400000095367432,0.05205000191926956
1784098594165292500,7.44229248046875,8.157000541687012,5.419050216674805,0.046950001269578934
1784098594175377400,7.45237744140625,8.152950286865234,5.424000263214111,-0.009000000543892384
1784098594185462300,7.462462158203125,8.169000625610352,5.425950050354004,-0.016050001606345177
1784098594195547100,7.472547119140625,8.1739501953125,5.392950057983398,0.11700000613927841
1784098594205632000,7.482632080078125,8.19795036315918,5.395050048828125,0.08295000344514847
1784098594215716900,7.492716796875,8.193000793457031,5.392950057983398,0.021000001579523087
1784098594225801700,7.5028017578125,8.193000793457031,5.401950359344482,0.07605000585317612
1784098594235886800,7.512886962890625,8.18595027923584,5.404950141906738,0.05505000427365303
1784098594245971700,7.5229716796875,8.188950538635254,5.404950141906738,-0.021000001579523087
1784098594256056300,7.533056396484375,8.160000801086426,5.419050216674805,-0.0019500000635161996
1784098594266141200,7.54314111328125,8.184000015258789,5.410050392150879,0.004050000105053186
1784098594276226300,7.553226318359375,8.1670503616333,5.424000263214111,-0.046950001269578934
1784098594286311200,7.563311279296875,8.18595027923584,5.419050216674805,-0.04500000178813934
1784098594296396000,7.57339599609375,8.14995002746582,5.424000263214111,-0.05205000191926956
1784098594306481000,7.58348095703125,8.164950370788574,5.404950141906738,-0.07095000147819519
1784098594316565800,7.593565673828125,8.16195011138916,5.424000263214111,-0.09000000357627869
1784098594326650600,7.603650634765625,8.145000457763672,5.422050476074219,-0.12600000202655792
1784098594336735500,7.613735595703125,8.152950286865234,5.419050216674805,-0.1380000114440918
1784098594346820400,7.6238203125,8.125950813293457,5.424000263214111,-0.11700000613927841
1784098594356905200,7.6339052734375,8.160000801086426,5.404950141906738,-0.15300001204013824
1784098594366989800,7.64398974609375,8.128950119018555,5.443050384521484,-0.12405000627040863
1784098594377074700,7.65407470703125,8.157000541687012,5.410050392150879,-0.09795000404119492
1784098594387159800,7.664159912109375,8.113950729370117,5.437950134277344,-0.1579500138759613
1784098594397244700,7.67424462890625,8.277000427246094,5.386050224304199,-0.16905000805854797
1784098594407329300,7.684329345703125,7.948950290679932,5.461950302124023,-0.032999999821186066
1784098594417414400,7.694414306640625,8.208000183105469,5.416950225830078,-0.09495000541210175
1784098594427499000,7.7044990234375,8.050050735473633,5.467050075531006,-0.14295001327991486
1784098594437584100,7.714584228515625,8.143050193786621,5.449950218200684,-0.04305000230669975
1784098594447669000,7.7246689453125,8.113950729370117,5.443050384521484,-0.04305000230669975
1784098594457753900,7.73475390625,8.116950035095215,5.452950477600098,-0.07905000448226929
1784098594467838500,7.74483837890625,8.110050201416016,5.45805025100708,-0.019050000235438347
1784098594477923600,7.754923583984375,8.104949951171875,5.45805025100708,0.013950000517070293
1784098594488008400,7.765008544921875,8.14995002746582,5.461950302124023,-0.004050000105053186
1784098594498093300,7.77509326171875,8.092950820922852,5.464950084686279,0.004050000105053186
1784098594508178200,7.78517822265625,8.176950454711914,5.452950477600098,0.046950001269578934
1784098594518263000,7.795262939453125,8.104949951171875,5.452950477600098,0.04500000178813934
1784098594528348000,7.805347900390625,8.169000625610352,5.437950134277344,0.037950001657009125
1784098594538432800,7.815432861328125,8.148000717163086,5.422050476074219,0.0499500036239624
1784098594548517600,7.825517578125,8.1670503616333,5.424000263214111,0.04305000230669975
1784098594558602500,7.8356025390625,8.181000709533691,5.398050308227539,0.034950003027915955
1784098594568687400,7.845687255859375,8.181000709533691,5.398050308227539,0.032999999821186066
1784098594578772200,7.855772216796875,8.20995044708252,5.389950275421143,0.016050001606345177
1784098594588857000,7.865857177734375,8.204999923706055,5.374050140380859,-0.009000000543892384
1784098594598942000,7.87594189453125,8.208000183105469,5.355000019073486,-0.010950000956654549
1784098594609026800,7.88602685546875,8.241000175476074,5.350050449371338,-0.022950001060962677
1784098594619111700,7.896111572265625,8.176950454711914,5.344950199127197,-0.05505000427365303
1784098594629196500,7.906196533203125,8.256000518798828,5.355000019073486,-0.05505000427365303
1784098594639281400,7.916281494140625,8.18595027923584,5.367000102996826,-0.07395000010728836
1784098594649366300,7.9263662109375,8.17905044555664,5.3620500564575195,-0.0880500078201294
1784098594659451100,7.936451171875,8.164950370788574,5.37600040435791,-0.07605000585317612
1784098594669536300,7.946536376953125,8.14995002746582,5.380950450897217,-0.10005000233650208
1784098594679621000,7.95662109375,8.116950035095215,5.398050308227539,-0.10500000417232513
1784098594689705700,7.966705810546875,8.134050369262695,5.404950141906738,-0.11700000613927841
1784098594699790800,7.976790771484375,8.086050033569336,5.425950050354004,-0.11700000613927841
1784098594709875700,7.986875732421875,8.092950820922852,5.425950050354004,-0.1099500060081482
1784098594719960300,7.996960205078125,8.089950561523438,5.436000347137451,-0.11205000430345535
1784098594730045200,8.007045166015626,8.080950736999512,5.45805025100708,-0.10200000554323196
1784098594740130000,8.017130126953125,8.100000381469727,5.464950084686279,-0.09300000220537186
1784098594750215000,8.02721484375,8.083050727844238,5.4810004234313965,-0.08295000344514847
1784098594760299800,8.0372998046875,8.110050201416016,5.4720001220703125,-0.07605000585317612
1784098594770384600,8.047384521484375,8.110050201416016,5.4810004234313965,-0.05505000427365303
1784098594780469500,8.057469482421874,8.125950813293457,5.485950469970703,-0.0499500036239624
1784098594790554400,8.067554443359375,8.143050193786621,5.497950077056885,-0.019050000235438347
1784098594800639200,8.07763916015625,8.152950286865234,5.485950469970703,-0.0019500000635161996
1784098594810724000,8.08772412109375,8.152950286865234,5.496000289916992,0.0070500001311302185
1784098594820809000,8.09780908203125,8.176950454711914,5.484000205993652,0.034950003027915955
1784098594830893800,8.107893798828124,8.157000541687012,5.460000038146973,0.04305000230669975
1784098594840978700,8.117978759765625,8.181000709533691,5.452950477600098,0.04005000367760658
1784098594851063600,8.1280634765625,8.181000709533691,5.448000431060791,0.0499500036239624
1784098594861148400,8.1381484375,8.193000793457031,5.4310503005981445,0.0499500036239624
1784098594871233300,8.1482333984375,8.184000015258789,5.416950225830078,0.05205000191926956
1784098594881318100,8.158318115234374,8.184000015258789,5.395050048828125,0.025950001552700996
1784098594891403000,8.168403076171876,8.188950538635254,5.380950450897217,0.013950000517070293
1784098594901488000,8.178488037109375,8.188950538635254,5.36400032043457,-0.009000000543892384
1784098594911573000,8.188572998046874,8.184000015258789,5.355000019073486,-0.025950001552700996
1784098594921657900,8.198657958984375,8.18595027923584,5.338050365447998,-0.05700000375509262
1784098594931742700,8.20874267578125,8.1739501953125,5.332950115203857,-0.07395000010728836
1784098594941827600,8.21882763671875,8.157000541687012,5.340000152587891,-0.0880500078201294
1784098594951912400,8.228912353515625,8.145000457763672,5.335050106048584,-0.10005000233650208
1784098594961997300,8.238997314453124,8.152950286865234,5.3520002365112305,-0.09300000220537186
1784098594972082200,8.249082275390625,8.16195011138916,5.367000102996826,-0.10005000233650208
1784098594982167000,8.2591669921875,8.113950729370117,5.3710503578186035,-0.11400000751018524
1784098594992252000,8.269251953125,8.143050193786621,5.398050308227539,-0.10005000233650208
1784098595002336800,8.279336669921875,8.131050109863281,5.413950443267822,-0.10005000233650208
1784098595012421600,8.289421630859374,8.145000457763672,5.425950050354004,-0.1099500060081482
1784098595022506500,8.299506591796876,8.148000717163086,5.449950218200684,-0.08595000207424164
1784098595032591400,8.30959130859375,8.152950286865234,5.448000431060791,-0.08295000344514847
1784098595042676200,8.31967626953125,8.14995002746582,5.467050075531006,-0.08295000344514847
1784098595052761000,8.329760986328125,8.164950370788574,5.469000339508057,-0.0690000057220459
1784098595062846000,8.339845947265625,8.160000801086426,5.473950386047363,-0.06405000388622284
1784098595072930800,8.349930908203126,8.14995002746582,5.461950302124023,-0.05895000323653221
1784098595083015700,8.360015625,8.16195011138916,5.4720001220703125,-0.046950001269578934
1784098595093100500,8.3701005859375,8.136000633239746,5.469000339508057,-0.037950001657009125
1784098595103185200,8.38018505859375,8.148000717163086,5.461950302124023,-0.028050001710653305
1784098595113270000,8.39027001953125,8.128950119018555,5.455050468444824,-0.010950000956654549
1784098595123355000,8.40035498046875,8.128950119018555,5.443050384521484,0
1784098595133439700,8.410439697265625,8.13794994354248,5.44605016708374,0.016050001606345177
1784098595143524600,8.420524658203124,8.119050025939941,5.4340500831604,0.025950001552700996
1784098595153609500,8.430609375,8.124000549316406,5.422050476074219,0.022950001060962677
1784098595163694300,8.4406943359375,8.125950813293457,5.416950225830078,0.034950003027915955
1784098595173779200,8.450779296875,8.101950645446777,5.422050476074219,0.04500000178813934
1784098595183864000,8.460864013671875,8.143050193786621,5.401950359344482,0.022950001060962677
1784098595193949000,8.470948974609374,8.131050109863281,5.413950443267822,0.034950003027915955
1784098595204033800,8.48103369140625,8.112000465393066,5.401950359344482,0.0499500036239624
1784098595214118700,8.49111865234375,8.145000457763672,5.410050392150879,0.05205000191926956
1784098595224203500,8.50120361328125,8.128950119018555,5.419050216674805,0.019050000235438347
1784098595234288400,8.511288330078125,8.125950813293457,5.413950443267822,0.021000001579523087
1784098595244373200,8.521373291015625,8.14995002746582,5.422050476074219,0.004050000105053186
1784098595254458000,8.5314580078125,8.124000549316406,5.407050132751465,-0.025950001552700996
1784098595264543000,8.54154296875,8.155050277709961,5.4120001792907715,-0.04005000367760658
1784098595274627800,8.5516279296875,8.164950370788574,5.413950443267822,-0.0690000057220459
1784098595284712700,8.561712646484375,8.169000625610352,5.400000095367432,-0.10500000417232513
1784098595294797600,8.571797607421875,8.188950538635254,5.395050048828125,-0.12195000797510147
1784098595304882400,8.58188232421875,8.188950538635254,5.392950057983398,-0.14100000262260437
1784098595314967300,8.59196728515625,8.19105052947998,5.386050224304199,-0.16695000231266022
1784098595325052200,8.60205224609375,8.18595027923584,5.38800048828125,-0.17205001413822174
1784098595335137000,8.612136962890625,8.220000267028809,5.389950275421143,-0.17205001413822174
1784098595345222000,8.622221923828125,8.188950538635254,5.398050308227539,-0.1770000010728836
1784098595355306800,8.632306640625,8.220000267028809,5.400000095367432,-0.15000000596046448
1784098595365391600,8.6423916015625,8.196000099182129,5.413950443267822,-0.14595000445842743
1784098595375476500,8.6524765625,8.19105052947998,5.422050476074219,-0.1380000114440918
1784098595385561300,8.662561279296876,8.184000015258789,5.422050476074219,-0.12405000627040863
1784098595395646200,8.672646240234375,8.17905044555664,5.4310503005981445,-0.09000000357627869
1784098595405731000,8.68273095703125,8.1670503616333,5.437950134277344,-0.07095000147819519
1784098595415816000,8.69281591796875,8.152950286865234,5.440950393676758,-0.05895000323653221
1784098595425900800,8.70290087890625,8.143050193786621,5.436000347137451,-0.032999999821186066
1784098595435985700,8.712985595703126,8.134050369262695,5.437950134277344,0.009000000543892384
1784098595446070500,8.723070556640625,8.116950035095215,5.437950134277344,0.021000001579523087
1784098595456155400,8.7331552734375,8.122050285339355,5.443050384521484,0.05205000191926956
1784098595466240300,8.743240234375,8.104949951171875,5.449950218200684,0.07095000147819519
1784098595476325000,8.7533251953125,8.095050811767578,5.449950218200684,0.0880500078201294
1784098595486410000,8.763409912109376,8.101950645446777,5.44605016708374,0.09795000404119492
1784098595496494800,8.773494873046875,8.080950736999512,5.452950477600098,0.11205000430345535
1784098595506579700,8.783579833984374,8.100000381469727,5.448000431060791,0.11400000751018524
1784098595516664600,8.79366455078125,8.088000297546387,5.44605016708374,0.09795000404119492
1784098595526749400,8.80374951171875,8.086050033569336,5.440950393676758,0.09495000541210175
1784098595536834300,8.813834228515624,8.088000297546387,5.437950134277344,0.07395000010728836
1784098595546919200,8.823919189453125,8.104949951171875,5.422050476074219,0.04500000178813934
1784098595557004000,8.834004150390625,8.101950645446777,5.422050476074219,0.031050002202391624
1784098595567089000,8.8440888671875,8.13794994354248,5.407050132751465,0
1784098595577173800,8.854173828125,8.125950813293457,5.413950443267822,-0.028050001710653305
1784098595587258600,8.864258544921874,8.155050277709961,5.398050308227539,-0.06195000186562538
1784098595597343500,8.874343505859375,8.164950370788574,5.392950057983398,-0.08595000207424164
1784098595607428000,8.884427978515625,8.176950454711914,5.398050308227539,-0.11205000430345535
1784098595617513000,8.894512939453126,8.188950538635254,5.38800048828125,-0.14295001327991486
1784098595627598000,8.90459814453125,8.20305061340332,5.383050441741943,-0.15495000779628754
1784098595637682700,8.9146826171875,8.20305061340332,5.389950275421143,-0.16905000805854797
1784098595647767600,8.924767578125,8.212950706481934,5.38800048828125,-0.18405000865459442
1784098595657852400,8.934852294921875,8.224050521850586,5.392950057983398,-0.1960500031709671
1784098595667937300,8.944937255859376,8.22705078125,5.38800048828125,-0.1960500031709671
1784098595678022100,8.955022216796875,8.229000091552734,5.400000095367432,-0.18900001049041748
1784098595688107000,8.96510693359375,8.22705078125,5.407050132751465,-0.18105000257492065
1784098595698192000,8.97519189453125,8.217000007629395,5.407050132751465,-0.16005000472068787
1784098595708276700,8.98527685546875,8.200950622558594,5.413950443267822,-0.1360500007867813
1784098595718361600,8.995361572265624,8.208000183105469,5.425950050354004,-0.11700000613927841
1784098595728446500,9.005446533203125,8.1739501953125,5.4340500831604,-0.0880500078201294
1784098595738531300,9.01553125,8.176950454711914,5.425950050354004,-0.06405000388622284
1784098595748616200,9.0256162109375,8.13794994354248,5.437950134277344,-0.019050000235438347
1784098595758701000,9.035701171875,8.134050369262695,5.436000347137451,0.013950000517070293
1784098595768786000,9.045785888671874,8.101950645446777,5.443050384521484,0.031050002202391624
1784098595778870800,9.055870849609375,8.116950035095215,5.449950218200684,0.06195000186562538
1784098595788955600,9.06595556640625,8.092950820922852,5.436000347137451,0.08295000344514847
1784098595799040500,9.07604052734375,8.113950729370117,5.443050384521484,0.12405000627040863
1784098595809125400,9.08612548828125,8.052000045776367,5.449950218200684,0.10005000233650208
1784098595819210200,9.096210205078124,8.113950729370117,5.4720001220703125,0.046950001269578934
1784098595829295000,9.106295166015625,8.006999969482422,5.4720001220703125,0.08295000344514847
1784098595839380000,9.1163798828125,8.131050109863281,5.436000347137451,0.09300000220537186
1784098595849464800,9.12646484375,8.083050727844238,5.437950134277344,0.10500000417232513
1784098595869634600,9.146634521484375,8.128950119018555,5.4310503005981445,0.04305000230669975
1784098595879719400,9.156719482421876,8.157000541687012,5.419050216674805,0.04005000367760658
1784098595889804300,9.16680419921875,8.119050025939941,5.416950225830078,0.0019500000635161996
1784098595899889200,9.17688916015625,8.160000801086426,5.407050132751465,-0.046950001269578934
1784098595909974000,9.18697412109375,8.16195011138916,5.401950359344482,-0.046950001269578934
1784098595920059000,9.197058837890625,8.155050277709961,5.404950141906738,-0.06405000388622284
1784098595930143700,9.207143798828126,8.204999923706055,5.389950275421143,-0.11205000430345535
1784098595940228400,9.217228271484375,8.1739501953125,5.389950275421143,-0.10695000737905502
1784098595950313200,9.227313232421874,8.229000091552734,5.379000186920166,-0.1290000081062317
1784098595960398000,9.237398193359375,8.19105052947998,5.395050048828125,-0.15300001204013824
1784098595970483000,9.24748291015625,8.22705078125,5.383050441741943,-0.14295001327991486
1784098595980568000,9.257568115234376,8.204999923706055,5.392950057983398,-0.14295001327991486
1784098595990653000,9.26765283203125,8.220000267028809,5.398050308227539,-0.16695000231266022
1784098596000737800,9.27773779296875,8.204999923706055,5.401950359344482,-0.15495000779628754
1784098596010822700,9.28782275390625,8.212950706481934,5.407050132751465,-0.13395000994205475
1784098596020907500,9.297907470703125,8.20305061340332,5.419050216674805,-0.1380000114440918
1784098596030992100,9.3079921875,8.181000709533691,5.425950050354004,-0.13095000386238098
1784098596041077000,9.318076904296875,8.193000793457031,5.413950443267822,-0.09795000404119492
1784098596051161900,9.328161865234375,8.157000541687012,5.419050216674805,-0.09300000220537186
1784098596061246700,9.338246826171876,8.155050277709961,5.4340500831604,-0.0690000057220459
1784098596071331600,9.34833154296875,8.13794994354248,5.4340500831604,-0.025950001552700996
1784098596081416400,9.35841650390625,8.136000633239746,5.437950134277344,-0.021000001579523087
1784098596091501300,9.368501220703125,8.119050025939941,5.437950134277344,0.004050000105053186
1784098596101586200,9.378586181640625,8.116950035095215,5.455050468444824,0.025950001552700996
1784098596111671000,9.388671142578126,8.112000465393066,5.455050468444824,0.0499500036239624
1784098596121756000,9.398755859375,8.110050201416016,5.455050468444824,0.046950001269578934
1784098596131840800,9.4088408203125,8.092950820922852,5.464950084686279,0.06195000186562538
1784098596141925600,9.418925537109375,8.112000465393066,5.443050384521484,0.07905000448226929
1784098596152010500,9.429010498046875,8.076000213623047,5.436000347137451,0.05895000323653221
1784098596162095400,9.439095458984376,8.089950561523438,5.424000263214111,0.05700000375509262
1784098596172180200,9.44918017578125,8.088000297546387,5.407050132751465,0.05505000427365303
1784098596182265000,9.45926513671875,8.089950561523438,5.400000095367432,0.037950001657009125
1784098596192350000,9.469349853515626,8.092950820922852,5.389950275421143,0.032999999821186066
1784098596202434800,9.479434814453125,8.104949951171875,5.386050224304199,0.028050001710653305
1784098596212519700,9.489519775390624,8.112000465393066,5.383050441741943,0.010950000956654549
1784098596222604300,9.499604248046875,8.143050193786621,5.37600040435791,-0.004050000105053186
1784098596232689200,9.509689208984375,8.140950202941895,5.38800048828125,-0.022950001060962677
1784098596242774000,9.51977392578125,8.1739501953125,5.379000186920166,-0.032999999821186066
1784098596252859000,9.52985888671875,8.181000709533691,5.404950141906738,-0.037950001657009125
1784098596262943700,9.53994384765625,8.18595027923584,5.4120001792907715,-0.06405000388622284
1784098596273028600,9.550028564453125,8.19795036315918,5.419050216674805,-0.08295000344514847
1784098596283113500,9.560113525390625,8.181000709533691,5.425950050354004,-0.09000000357627869
1784098596293198300,9.5701982421875,8.193000793457031,5.4340500831604,-0.1189500093460083
1784098596303283200,9.580283203125,8.1739501953125,5.448000431060791,-0.12405000627040863
1784098596313368000,9.5903681640625,8.184000015258789,5.436000347137451,-0.13395000994205475
1784098596323453000,9.600452880859375,8.17905044555664,5.440950393676758,-0.14595000445842743
1784098596333537800,9.610537841796875,8.1739501953125,5.443050384521484,-0.15000000596046448
1784098596343622700,9.62062255859375,8.1670503616333,5.44605016708374,-0.15000000596046448
1784098596353707500,9.63070751953125,8.18595027923584,5.448000431060791,-0.15000000596046448
1784098596363792400,9.64079248046875,8.164950370788574,5.455050468444824,-0.1290000081062317
1784098596373877200,9.650877197265626,8.17199993133545,5.449950218200684,-0.11205000430345535
1784098596383962000,9.660962158203125,8.1670503616333,5.460000038146973,-0.10005000233650208
1784098596394047000,9.671046875,8.155050277709961,5.464950084686279,-0.09000000357627869
1784098596404131800,9.6811318359375,8.160000801086426,5.455050468444824,-0.06405000388622284
1784098596414216700,9.691216796875,8.143050193786621,5.452950477600098,-0.0499500036239624
1784098596424301600,9.701301513671876,8.145000457763672,5.440950393676758,-0.031050002202391624
1784098596434386200,9.71138623046875,8.116950035095215,5.419050216674805,-0.025950001552700996
1784098596444471000,9.721470947265624,8.140950202941895,5.419050216674805,0.004050000105053186
1784098596454556000,9.731555908203125,8.13794994354248,5.395050048828125,0.0070500001311302185
1784098596464640800,9.741640869140625,8.13794994354248,5.392950057983398,0.009000000543892384
1784098596474725400,9.751725341796876,8.136000633239746,5.379000186920166,0.028050001710653305
1784098596484810200,9.761810302734375,8.157000541687012,5.380950450897217,0.034950003027915955
1784098596494895000,9.77189501953125,8.148000717163086,5.38800048828125,0.032999999821186066
1784098596504980000,9.78197998046875,8.169000625610352,5.367000102996826,0.019050000235438347
1784098596515064800,9.79206494140625,8.145000457763672,5.389950275421143,0.04005000367760658
1784098596525149700,9.802149658203126,8.1739501953125,5.367000102996826,0.028050001710653305
1784098596535234600,9.812234619140625,8.181000709533691,5.386050224304199,0.016050001606345177
1784098596545319400,9.8223193359375,8.169000625610352,5.392950057983398,0.016050001606345177
1784098596555404300,9.832404296875,8.176950454711914,5.404950141906738,0.010950000956654549
1784098596565489200,9.8424892578125,8.208000183105469,5.419050216674805,-0.013950000517070293
1784098596575574000,9.852573974609374,8.125950813293457,5.413950443267822,-0.010950000956654549
1784098596585659000,9.862658935546875,8.193000793457031,5.428950309753418,-0.013950000517070293
1784098596595743700,9.87274365234375,8.164950370788574,5.437950134277344,-0.037950001657009125
1784098596605828600,9.88282861328125,8.148000717163086,5.436000347137451,-0.0499500036239624
1784098596615913200,9.892913330078125,8.16195011138916,5.437950134277344,-0.05700000375509262
1784098596625998300,9.902998291015624,8.145000457763672,5.4310503005981445,-0.05700000375509262
1784098596636083200,9.913083251953125,8.13794994354248,5.461950302124023,-0.06405000388622284
1784098596646168000,9.92316796875,8.1739501953125,5.443050384521484,-0.09795000404119492
1784098596656253000,9.9332529296875,8.112000465393066,5.452950477600098,-0.07605000585317612
1784098596666337800,9.943337890625,8.160000801086426,5.452950477600098,-0.08595000207424164
1784098596676422700,9.953422607421874,8.145000457763672,5.4340500831604,-0.09495000541210175
1784098596686507500,9.963507568359375,8.157000541687012,5.448000431060791,-0.09495000541210175
1784098596696592400,9.97359228515625,8.145000457763672,5.44605016708374,-0.09300000220537186
1784098596706677200,9.98367724609375,8.136000633239746,5.443050384521484,-0.09495000541210175
1784098596716761900,9.993761962890625,8.160000801086426,5.4310503005981445,-0.0880500078201294
1784098596726846700,10.0038466796875,8.116950035095215,5.392950057983398,-0.07395000010728836
1784098596736931600,10.013931640625,8.208000183105469,5.460000038146973,-0.0690000057220459
1784098596747016400,10.024016357421875,8.143050193786621,5.428950309753418,-0.08100000023841858
1784098596757101300,10.034101318359374,8.122050285339355,5.436000347137451,-0.07395000010728836
1784098596767186200,10.044186279296875,8.17905044555664,5.407050132751465,-0.021000001579523087
1784098596777271000,10.05427099609375,8.112000465393066,5.410050392150879,-0.037950001657009125
1784098596787356000,10.06435595703125,8.155050277709961,5.398050308227539,-0.034950003027915955
1784098596797440800,10.074440673828125,8.188950538635254,5.392950057983398,-0.013950000517070293
1784098596807525600,10.084525634765624,8.080950736999512,5.379000186920166,-0.0019500000635161996
1784098596817610500,10.094610595703125,8.169000625610352,5.407050132751465,-0.004050000105053186
1784098596827695400,10.1046953125,8.119050025939941,5.367000102996826,0.004050000105053186
1784098596837780000,10.114780029296876,8.17199993133545,5.400000095367432,0.016050001606345177
1784098596847865000,10.124864990234375,8.20305061340332,5.392950057983398,0.010950000956654549
1784098596857949700,10.13494970703125,8.064000129699707,5.398050308227539,0.009000000543892384
1784098596868034600,10.14503466796875,8.176950454711914,5.38800048828125,0.016050001606345177
1784098596878119400,10.155119384765625,8.140950202941895,5.410050392150879,-0.0070500001311302185
1784098596888204300,10.165204345703126,8.19795036315918,5.419050216674805,-0.019050000235438347
1784098596898289200,10.1752890625,8.17905044555664,5.424000263214111,-0.016050001606345177
1784098596908374000,10.1853740234375,8.148000717163086,5.425950050354004,-0.013950000517070293
1784098596918459000,10.195458984375,8.164950370788574,5.440950393676758,-0.019050000235438347
1784098596928543700,10.205543701171875,8.21505069732666,5.443050384521484,-0.04005000367760658
1784098596938628600,10.215628662109374,8.140950202941895,5.44605016708374,-0.0499500036239624
1784098596948713500,10.22571337890625,8.193000793457031,5.448000431060791,-0.046950001269578934
1784098596958798300,10.23579833984375,8.148000717163086,5.460000038146973,-0.06195000186562538
1784098596968883200,10.24588330078125,8.140950202941895,5.45805025100708,-0.06405000388622284
1784098596978968000,10.255968017578125,8.169000625610352,5.448000431060791,-0.06705000251531601
1784098596989052700,10.266052734375,8.125950813293457,5.455050468444824,-0.07395000010728836
1784098596999137500,10.276137451171875,8.145000457763672,5.440950393676758,-0.07395000010728836
1784098597009222400,10.286222412109375,8.128950119018555,5.448000431060791,-0.06405000388622284
1784098597019307300,10.296307373046876,8.128950119018555,5.428950309753418,-0.06705000251531601
1784098597029392100,10.30639208984375,8.14995002746582,5.419050216674805,-0.07395000010728836
1784098597039476700,10.316476806640624,8.152950286865234,5.410050392150879,-0.06195000186562538
1784098597049561900,10.326561767578125,8.13794994354248,5.413950443267822,-0.06705000251531601
1784098597059646500,10.336646484375,8.155050277709961,5.410050392150879,-0.06195000186562538
1784098597069731300,10.3467314453125,8.13794994354248,5.4310503005981445,-0.06195000186562538
1784098597079816200,10.356816162109375,8.17199993133545,5.4120001792907715,-0.05700000375509262
1784098597089901000,10.366901123046874,8.136000633239746,5.413950443267822,-0.0499500036239624
1784098597099986000,10.37698583984375,8.155050277709961,5.389950275421143,-0.05205000191926956
1784098597110070800,10.38707080078125,8.160000801086426,5.416950225830078,-0.021000001579523087
1784098597120155600,10.39715576171875,8.143050193786621,5.398050308227539,-0.032999999821186066
1784098597130240500,10.407240478515625,8.155050277709961,5.395050048828125,-0.04305000230669975
1784098597140325400,10.417325439453125,8.145000457763672,5.368950366973877,0.004050000105053186
1784098597150410000,10.427409912109376,8.124000549316406,5.413950443267822,-0.032999999821186066
1784098597160494800,10.437494873046875,8.164950370788574,5.398050308227539,-0.028050001710653305
1784098597170579700,10.447579833984374,8.104949951171875,5.410050392150879,0
1784098597180664600,10.45766455078125,8.181000709533691,5.407050132751465,-0.021000001579523087
1784098597190749400,10.46774951171875,8.160000801086426,5.4120001792907715,-0.010950000956654549
1784098597200834300,10.477834228515626,8.17905044555664,5.400000095367432,-0.016050001606345177
1784098597210919200,10.487919189453125,8.169000625610352,5.422050476074219,-0.013950000517070293
1784098597221004000,10.498004150390624,8.169000625610352,5.4310503005981445,-0.028050001710653305
1784098597231089000,10.5080888671875,8.164950370788574,5.428950309753418,-0.016050001606345177
1784098597241173500,10.518173583984375,8.169000625610352,5.436000347137451,-0.028050001710653305
1784098597251258400,10.52825830078125,8.176950454711914,5.44605016708374,-0.028050001710653305
1784098597261343500,10.538343505859375,8.155050277709961,5.448000431060791,-0.032999999821186066
1784098597271428000,10.548427978515624,8.184000015258789,5.449950218200684,-0.04005000367760658
1784098597281513000,10.558512939453125,8.148000717163086,5.45805025100708,-0.0499500036239624
1784098597291597800,10.568597900390625,8.1739501953125,5.448000431060791,-0.046950001269578934
1784098597301682700,10.5786826171875,8.140950202941895,5.452950477600098,-0.046950001269578934
1784098597311767600,10.588767578125,8.152950286865234,5.449950218200684,-0.05895000323653221
1784098597321852400,10.598852294921874,8.140950202941895,5.437950134277344,-0.05205000191926956
1784098597331937300,10.608937255859376,8.131050109863281,5.437950134277344,-0.06195000186562538
1784098597342022000,10.61902197265625,8.140950202941895,5.425950050354004,-0.06195000186562538
1784098597352106800,10.629106689453126,8.125950813293457,5.422050476074219,-0.06195000186562538
1784098597362191600,10.639191650390625,8.13794994354248,5.4120001792907715,-0.06405000388622284
1784098597372276500,10.6492763671875,8.119050025939941,5.407050132751465,-0.05700000375509262
1784098597382361300,10.659361328125,8.13794994354248,5.410050392150879,-0.05700000375509262
1784098597392446200,10.6694462890625,8.136000633239746,5.407050132751465,-0.06195000186562538
1784098597402531000,10.679531005859374,8.148000717163086,5.395050048828125,-0.06405000388622284
1784098597412616000,10.689615966796875,8.131050109863281,5.401950359344482,-0.05895000323653221
1784098597422700800,10.69970068359375,8.160000801086426,5.407050132751465,-0.05505000427365303
1784098597432785700,10.70978564453125,8.143050193786621,5.4120001792907715,-0.05205000191926956
1784098597442870500,10.71987060546875,8.169000625610352,5.407050132751465,-0.04500000178813934
1784098597452955100,10.729955078125,8.1670503616333,5.410050392150879,-0.04500000178813934
1784098597463040300,10.740040283203125,8.176950454711914,5.404950141906738,-0.04005000367760658
1784098597473125000,10.750125,8.176950454711914,5.416950225830078,-0.031050002202391624
1784098597483209700,10.760209716796876,8.184000015258789,5.413950443267822,-0.032999999821186066
1784098597493294800,10.770294921875,8.18595027923584,5.416950225830078,-0.028050001710653305
1784098597503379700,10.780379638671874,8.19105052947998,5.4310503005981445,-0.032999999821186066
1784098597513464300,10.79046435546875,8.184000015258789,5.424000263214111,-0.021000001579523087
1784098597523549200,10.800549072265625,8.17905044555664,5.428950309753418,-0.016050001606345177
1784098597533634000,10.810634033203126,8.169000625610352,5.425950050354004,-0.022950001060962677
1784098597543719000,10.820718994140625,8.152950286865234,5.4310503005981445,-0.025950001552700996
1784098597553803800,10.8308037109375,8.169000625610352,5.425950050354004,-0.025950001552700996
1784098597563888600,10.840888671875,8.145000457763672,5.436000347137451,-0.028050001710653305
1784098597573973500,10.850973388671875,8.148000717163086,5.4340500831604,-0.025950001552700996
1784098597584058400,10.861058349609374,8.13794994354248,5.4340500831604,-0.031050002202391624
1784098597594143200,10.871143310546875,8.13794994354248,5.4310503005981445,-0.032999999821186066
1784098597604228000,10.88122802734375,8.131050109863281,5.440950393676758,-0.032999999821186066
1784098597614313000,10.89131298828125,8.13794994354248,5.436000347137451,-0.032999999821186066
1784098597624397600,10.9013974609375,8.128950119018555,5.4340500831604,-0.04500000178813934
1784098597634482700,10.911482666015624,8.140950202941895,5.4340500831604,-0.037950001657009125
1784098597644567300,10.9215673828125,8.128950119018555,5.440950393676758,-0.0499500036239624
1784098597654652200,10.931652099609375,8.143050193786621,5.428950309753418,-0.046950001269578934
1784098597664737000,10.941737060546876,8.140950202941895,5.425950050354004,-0.046950001269578934
1784098597674822000,10.95182177734375,8.148000717163086,5.4310503005981445,-0.05895000323653221
1784098597684906800,10.96190673828125,8.143050193786621,5.419050216674805,-0.05700000375509262
1784098597694991600,10.97199169921875,8.145000457763672,5.422050476074219,-0.05205000191926956
1784098597705076500,10.982076416015625,8.16195011138916,5.407050132751465,-0.05505000427365303
1784098597715161300,10.992161376953124,8.160000801086426,5.4120001792907715,-0.05505000427365303
1784098597725246200,11.00224609375,8.1670503616333,5.404950141906738,-0.05700000375509262
1784098597735331000,11.0123310546875,8.169000625610352,5.395050048828125,-0.04500000178813934
1784098597745415700,11.022415771484376,8.176950454711914,5.401950359344482,-0.06195000186562538
1784098597755500500,11.03250048828125,8.164950370788574,5.404950141906738,-0.05700000375509262
1784098597765585400,11.04258544921875,8.181000709533691,5.398050308227539,-0.05700000375509262
1784098597775670300,11.052670166015625,8.17199993133545,5.407050132751465,-0.05205000191926956
1784098597785755100,11.062755126953125,8.17199993133545,5.410050392150879,-0.0499500036239624
1784098597795840000,11.072840087890626,8.17905044555664,5.413950443267822,-0.04305000230669975
1784098597805924900,11.0829248046875,8.1739501953125,5.422050476074219,-0.04305000230669975
1784098597816009700,11.093009765625,8.17199993133545,5.425950050354004,-0.04005000367760658
1784098597826094600,11.103094482421875,8.160000801086426,5.428950309753418,-0.034950003027915955
1784098597836179500,11.113179443359375,8.1670503616333,5.436000347137451,-0.031050002202391624
1784098597846264000,11.12326416015625,8.160000801086426,5.4340500831604,-0.022950001060962677
1784098597856349000,11.133348876953125,8.148000717163086,5.443050384521484,-0.022950001060962677
1784098597866433800,11.143433837890624,8.145000457763672,5.443050384521484,-0.021000001579523087
1784098597876518700,11.1535185546875,8.148000717163086,5.437950134277344,-0.021000001579523087
1784098597886603500,11.163603515625,8.136000633239746,5.443050384521484,-0.031050002202391624
1784098597896688400,11.1736884765625,8.13794994354248,5.4310503005981445,-0.021000001579523087
1784098597906773200,11.183773193359375,8.128950119018555,5.4340500831604,-0.025950001552700996
1784098597916858000,11.193858154296874,8.131050109863281,5.4310503005981445,-0.025950001552700996
1784098597926943000,11.20394287109375,8.131050109863281,5.425950050354004,-0.028050001710653305
1784098597937027800,11.21402783203125,8.145000457763672,5.425950050354004,-0.031050002202391624
1784098597947112700,11.22411279296875,8.136000633239746,5.416950225830078,-0.025950001552700996
1784098597957197300,11.234197265625,8.148000717163086,5.419050216674805,-0.031050002202391624
1784098597967282200,11.2442822265625,8.140950202941895,5.416950225830078,-0.037950001657009125
1784098597977367000,11.254366943359376,8.157000541687012,5.4120001792907715,-0.04305000230669975
1784098597987452000,11.264451904296875,8.148000717163086,5.410050392150879,-0.04500000178813934
1784098597997536800,11.274536865234374,8.169000625610352,5.4120001792907715,-0.05505000427365303
1784098598007621600,11.28462158203125,8.1739501953125,5.413950443267822,-0.05505000427365303
1784098598017706500,11.29470654296875,8.1739501953125,5.4120001792907715,-0.05700000375509262
1784098598027791400,11.304791259765626,8.169000625610352,5.413950443267822,-0.06705000251531601
1784098598037876200,11.314876220703125,8.176950454711914,5.407050132751465,-0.05205000191926956
1784098598047961000,11.324961181640624,8.169000625610352,5.410050392150879,-0.05895000323653221
1784098598058045700,11.335045654296875,8.1739501953125,5.416950225830078,-0.05700000375509262
1784098598068130600,11.345130615234375,8.17199993133545,5.413950443267822,-0.05700000375509262
1784098598078215400,11.35521533203125,8.1739501953125,5.413950443267822,-0.05205000191926956
1784098598088300300,11.36530029296875,8.176950454711914,5.416950225830078,-0.05205000191926956
1784098598098385200,11.37538525390625,8.164950370788574,5.422050476074219,-0.05205000191926956
1784098598108470000,11.385469970703125,8.1670503616333,5.419050216674805,-0.046950001269578934
1784098598118555000,11.395554931640625,8.14995002746582,5.424000263214111,-0.04005000367760658
1784098598128639700,11.4056396484375,8.157000541687012,5.428950309753418,-0.037950001657009125
1784098598138724600,11.415724609375,8.13794994354248,5.440950393676758,-0.028050001710653305
1784098598148809500,11.4258095703125,8.148000717163086,5.425950050354004,-0.028050001710653305
1784098598158894300,11.435894287109376,8.136000633239746,5.436000347137451,-0.028050001710653305
1784098598168979000,11.44597900390625,8.143050193786621,5.4310503005981445,-0.025950001552700996
1784098598179063800,11.456063720703124,8.131050109863281,5.422050476074219,-0.025950001552700996
1784098598189148700,11.466148681640625,8.131050109863281,5.424000263214111,-0.022950001060962677
1784098598199233500,11.476233642578125,8.136000633239746,5.428950309753418,-0.022950001060962677
1784098598209318400,11.486318359375,8.148000717163086,5.424000263214111,-0.022950001060962677
1784098598219403300,11.4964033203125,8.131050109863281,5.428950309753418,-0.022950001060962677
1784098598229488000,11.506488037109374,8.140950202941895,5.425950050354004,-0.025950001552700996
1784098598239573000,11.516572998046875,8.140950202941895,5.422050476074219,-0.032999999821186066
1784098598249657900,11.526657958984375,8.152950286865234,5.428950309753418,-0.022950001060962677
1784098598259742700,11.53674267578125,8.157000541687012,5.416950225830078,-0.037950001657009125
1784098598269827600,11.54682763671875,8.160000801086426,5.419050216674805,-0.04005000367760658
1784098598279912400,11.556912353515624,8.16195011138916,5.419050216674805,-0.037950001657009125
1784098598289997300,11.566997314453126,8.160000801086426,5.4120001792907715,-0.034950003027915955
1784098598300082200,11.577082275390625,8.164950370788574,5.407050132751465,-0.04005000367760658
1784098598310166800,11.587166748046876,8.1739501953125,5.410050392150879,-0.034950003027915955
1784098598320251600,11.597251708984375,8.176950454711914,5.401950359344482,-0.046950001269578934
1784098598330336500,11.60733642578125,8.1739501953125,5.4120001792907715,-0.05505000427365303
1784098598340421400,11.61742138671875,8.169000625610352,5.413950443267822,-0.046950001269578934
1784098598350506200,11.62750634765625,8.1670503616333,5.416950225830078,-0.05205000191926956
1784098598360591000,11.637591064453124,8.181000709533691,5.407050132751465,-0.05205000191926956
1784098598370676000,11.647676025390625,8.157000541687012,5.419050216674805,-0.06405000388622284
1784098598380760800,11.6577607421875,8.169000625610352,5.4120001792907715,-0.06195000186562538
1784098598390845400,11.667845458984376,8.155050277709961,5.425950050354004,-0.05505000427365303
1784098598400930300,11.677930419921875,8.16195011138916,5.4310503005981445,-0.05505000427365303
1784098598411015200,11.68801513671875,8.160000801086426,5.428950309753418,-0.05895000323653221
1784098598421100000,11.69810009765625,8.14995002746582,5.428950309753418,-0.046950001269578934
1784098598431185000,11.708184814453125,8.148000717163086,5.436000347137451,-0.05700000375509262
1784098598441269800,11.718269775390626,8.136000633239746,5.4340500831604,-0.04005000367760658
1784098598451354400,11.728354248046875,8.145000457763672,5.425950050354004,-0.04005000367760658
1784098598461439200,11.738439208984374,8.136000633239746,5.4310503005981445,-0.032999999821186066
1784098598471524000,11.748524169921875,8.13794994354248,5.4340500831604,-0.04305000230669975
1784098598481609000,11.75860888671875,8.128950119018555,5.436000347137451,-0.028050001710653305
1784098598491693800,11.76869384765625,8.143050193786621,5.428950309753418,-0.031050002202391624
1784098598501778700,11.77877880859375,8.128950119018555,5.424000263214111,-0.034950003027915955
1784098598511863600,11.788863525390624,8.145000457763672,5.4310503005981445,-0.028050001710653305
1784098598521948400,11.798948486328126,8.145000457763672,5.424000263214111,-0.022950001060962677
1784098598532033000,11.809032958984375,8.152950286865234,5.419050216674805,-0.022950001060962677
1784098598542118100,11.8191181640625,8.152950286865234,5.425950050354004,-0.025950001552700996
1784098598552202800,11.82920263671875,8.155050277709961,5.419050216674805,-0.034950003027915955
1784098598562287600,11.83928759765625,8.157000541687012,5.419050216674805,-0.022950001060962677
1784098598572372500,11.84937255859375,8.16195011138916,5.4120001792907715,-0.034950003027915955
1784098598582457300,11.859457275390625,8.16195011138916,5.419050216674805,-0.031050002202391624
1784098598592542200,11.869542236328124,8.17199993133545,5.419050216674805,-0.031050002202391624
1784098598602627000,11.879626953125,8.1739501953125,5.416950225830078,-0.037950001657009125
1784098598612712000,11.8897119140625,8.1739501953125,5.4120001792907715,-0.037950001657009125
1784098598622796800,11.899796875,8.169000625610352,5.416950225830078,-0.04500000178813934
1784098598632881400,11.90988134765625,8.17199993133545,5.413950443267822,-0.04305000230669975
1784098598642966300,11.91996630859375,8.1739501953125,5.4120001792907715,-0.046950001269578934
1784098598653051100,11.930051025390625,8.169000625610352,5.410050392150879,-0.046950001269578934
1784098598663136000,11.940135986328125,8.1739501953125,5.410050392150879,-0.0499500036239624
1784098598673220900,11.950220947265626,8.157000541687012,5.422050476074219,-0.0499500036239624
1784098598683305700,11.9603056640625,8.16195011138916,5.4120001792907715,-0.05205000191926956
1784098598693390600,11.970390625,8.145000457763672,5.422050476074219,-0.046950001269578934
1784098598703475500,11.980475341796875,8.155050277709961,5.422050476074219,-0.05205000191926956
1784098598713560300,11.990560302734375,8.140950202941895,5.425950050354004,-0.05505000427365303
1784098598723645000,12.00064501953125,8.157000541687012,5.424000263214111,-0.05505000427365303
1784098598733729800,12.010729736328125,8.13794994354248,5.428950309753418,-0.05505000427365303
1784098598743814700,12.020814697265624,8.140950202941895,5.424000263214111,-0.046950001269578934
1784098598753899500,12.0308994140625,8.13794994354248,5.425950050354004,-0.05505000427365303
1784098598763984400,12.040984375,8.124000549316406,5.416950225830078,-0.046950001269578934
1784098598774069200,12.0510693359375,8.140950202941895,5.424000263214111,-0.04305000230669975
1784098598784154000,12.061154052734375,8.13794994354248,5.428950309753418,-0.04305000230669975
1784098598794239000,12.071239013671875,8.143050193786621,5.422050476074219,-0.04005000367760658
1784098598804323800,12.08132373046875,8.148000717163086,5.428950309753418,-0.037950001657009125
1784098598814408700,12.09140869140625,8.14995002746582,5.424000263214111,-0.04500000178813934
1784098598824493600,12.10149365234375,8.155050277709961,5.422050476074219,-0.031050002202391624
1784098598834578400,12.111578369140625,8.164950370788574,5.422050476074219,-0.046950001269578934
1784098598844663300,12.121663330078125,8.160000801086426,5.4340500831604,-0.034950003027915955
1784098598854748200,12.131748046875,8.16195011138916,5.424000263214111,-0.034950003027915955
1784098598864833000,12.1418330078125,8.16195011138916,5.416950225830078,-0.028050001710653305
1784098598874917600,12.151917724609374,8.1739501953125,5.419050216674805,-0.034950003027915955
1784098598885002500,12.16200244140625,8.17199993133545,5.428950309753418,-0.028050001710653305
1784098598895087400,12.17208740234375,8.17905044555664,5.413950443267822,-0.034950003027915955
1784098598905172200,12.182172119140626,8.1670503616333,5.4310503005981445,-0.037950001657009125
1784098598915257000,12.192257080078125,8.176950454711914,5.4120001792907715,-0.031050002202391624
1784098598925342000,12.202342041015624,8.169000625610352,5.422050476074219,-0.04005000367760658
1784098598935426800,12.2124267578125,8.16195011138916,5.4120001792907715,-0.031050002202391624
1784098598945511700,12.22251171875,8.17199993133545,5.419050216674805,-0.037950001657009125
1784098598955596300,12.23259619140625,8.16195011138916,5.413950443267822,-0.031050002202391624
1784098598965681200,12.24268115234375,8.16195011138916,5.428950309753418,-0.04305000230669975
1784098598975766000,12.25276611328125,8.16195011138916,5.422050476074219,-0.04305000230669975
1784098598985850600,12.2628505859375,8.155050277709961,5.424000263214111,-0.046950001269578934
1784098598995935700,12.272935791015625,8.160000801086426,5.419050216674805,-0.04500000178813934
1784098599006020600,12.2830205078125,8.148000717163086,5.413950443267822,-0.05895000323653221
1784098599016105500,12.29310546875,8.140950202941895,5.419050216674805,-0.0499500036239624
1784098599026190000,12.303190185546875,8.155050277709961,5.416950225830078,-0.0499500036239624
1784098599036275000,12.31327490234375,8.125950813293457,5.422050476074219,-0.04500000178813934
1784098599046359800,12.32335986328125,8.143050193786621,5.419050216674805,-0.0499500036239624
1784098599056444700,12.333444580078124,8.128950119018555,5.425950050354004,-0.04305000230669975
1784098599066529500,12.343529541015625,8.145000457763672,5.419050216674805,-0.046950001269578934
1784098599076614400,12.353614501953125,8.143050193786621,5.416950225830078,-0.05205000191926956
1784098599086699000,12.363698974609376,8.155050277709961,5.428950309753418,-0.0499500036239624
1784098599096784000,12.373783935546875,8.136000633239746,5.4340500831604,-0.04305000230669975
1784098599106868700,12.38386865234375,8.160000801086426,5.4340500831604,-0.037950001657009125
1784098599116953600,12.39395361328125,8.14995002746582,5.428950309753418,-0.037950001657009125
1784098599127038500,12.40403857421875,8.169000625610352,5.424000263214111,-0.04500000178813934
1784098599137123300,12.414123291015626,8.16195011138916,5.4310503005981445,-0.04005000367760658
1784098599147208200,12.424208251953125,8.164950370788574,5.424000263214111,-0.034950003027915955
1784098599157293000,12.43429296875,8.164950370788574,5.4310503005981445,-0.04005000367760658
1784098599167378000,12.4443779296875,8.176950454711914,5.424000263214111,-0.032999999821186066
1784098599177462500,12.454462646484375,8.17199993133545,5.4310503005981445,-0.037950001657009125
1784098599187547400,12.46454736328125,8.169000625610352,5.4310503005981445,-0.037950001657009125
1784098599197632300,12.47463232421875,8.181000709533691,5.422050476074219,-0.031050002202391624
1784098599207717000,12.484717041015625,8.17199993133545,5.419050216674805,-0.032999999821186066
1784098599217802000,12.494802001953126,8.17199993133545,5.4120001792907715,-0.031050002202391624
1784098599227886600,12.504886474609375,8.157000541687012,5.416950225830078,-0.034950003027915955
1784098599237971500,12.514971435546874,8.176950454711914,5.410050392150879,-0.037950001657009125
1784098599248056300,12.525056396484375,8.148000717163086,5.416950225830078,-0.031050002202391624
1784098599258141200,12.53514111328125,8.1670503616333,5.413950443267822,-0.037950001657009125
1784098599268226000,12.54522607421875,8.13794994354248,5.413950443267822,-0.032999999821186066
1784098599278311000,12.555310791015625,8.14995002746582,5.4120001792907715,-0.028050001710653305
1784098599288395800,12.565395751953124,8.136000633239746,5.416950225830078,-0.034950003027915955
1784098599298480600,12.575480712890625,8.14995002746582,5.4120001792907715,-0.04305000230669975
1784098599308565500,12.5855654296875,8.143050193786621,5.413950443267822,-0.034950003027915955
1784098599318650400,12.595650390625,8.14995002746582,5.419050216674805,-0.04500000178813934
1784098599328735200,12.6057353515625,8.136000633239746,5.422050476074219,-0.04305000230669975
1784098599338820000,12.615820068359374,8.148000717163086,5.425950050354004,-0.046950001269578934
1784098599348905000,12.625905029296876,8.14995002746582,5.424000263214111,-0.04305000230669975
1784098599358989800,12.63598974609375,8.145000457763672,5.425950050354004,-0.04500000178813934
1784098599369074400,12.646074462890626,8.157000541687012,5.425950050354004,-0.04005000367760658
1784098599379159300,12.6561591796875,8.14995002746582,5.422050476074219,-0.0499500036239624
1784098599389244200,12.666244140625,8.160000801086426,5.425950050354004,-0.04305000230669975
1784098599399329000,12.6763291015625,8.14995002746582,5.4340500831604,-0.037950001657009125
1784098599409414000,12.686413818359375,8.164950370788574,5.424000263214111,-0.034950003027915955
1784098599419498800,12.696498779296874,8.152950286865234,5.428950309753418,-0.034950003027915955
1784098599429583600,12.70658349609375,8.17199993133545,5.425950050354004,-0.04005000367760658
1784098599439668500,12.71666845703125,8.16195011138916,5.428950309753418,-0.04305000230669975
1784098599449753000,12.726753173828126,8.17199993133545,5.424000263214111,-0.04005000367760658
1784098599459838000,12.736837890625,8.160000801086426,5.4340500831604,-0.037950001657009125
1784098599469922800,12.7469228515625,8.1739501953125,5.422050476074219,-0.04305000230669975
1784098599480007700,12.757007568359375,8.16195011138916,5.425950050354004,-0.031050002202391624
1784098599490092500,12.767092529296875,8.17199993133545,5.419050216674805,-0.032999999821186066
1784098599500177400,12.777177490234376,8.16195011138916,5.424000263214111,-0.04005000367760658
1784098599510262300,12.78726220703125,8.160000801086426,5.425950050354004,-0.04305000230669975
1784098599520347100,12.79734716796875,8.160000801086426,5.424000263214111,-0.04005000367760658
1784098599530432000,12.807431884765625,8.155050277709961,5.416950225830078,-0.04005000367760658
1784098599540516600,12.8175166015625,8.148000717163086,5.419050216674805,-0.032999999821186066
1784098599550601500,12.8276015625,8.14995002746582,5.416950225830078,-0.034950003027915955
1784098599560686300,12.837686279296875,8.152950286865234,5.413950443267822,-0.04005000367760658
1784098599570771200,12.847771240234374,8.148000717163086,5.413950443267822,-0.046950001269578934
1784098599580856000,12.85785595703125,8.148000717163086,5.413950443267822,-0.04305000230669975
1784098599590941000,12.86794091796875,8.148000717163086,5.413950443267822,-0.04305000230669975
1784098599601025800,12.87802587890625,8.145000457763672,5.416950225830078,-0.04305000230669975
1784098599611110700,12.888110595703125,8.143050193786621,5.413950443267822,-0.034950003027915955
1784098599621195300,12.8981953125,8.160000801086426,5.413950443267822,-0.0499500036239624
1784098599631280000,12.908280029296876,8.143050193786621,5.424000263214111,-0.034950003027915955
1784098599641365000,12.918364990234375,8.169000625610352,5.422050476074219,-0.034950003027915955
1784098599651449900,12.928449951171874,8.145000457763672,5.425950050354004,-0.034950003027915955
1784098599661534700,12.93853466796875,8.17199993133545,5.422050476074219,-0.034950003027915955
1784098599671619600,12.94861962890625,8.160000801086426,5.419050216674805,-0.04305000230669975
1784098599681704400,12.958704345703126,8.17199993133545,5.419050216674805,-0.034950003027915955
1784098599691789300,12.968789306640625,8.169000625610352,5.428950309753418,-0.037950001657009125
1784098599701874000,12.9788740234375,8.16195011138916,5.425950050354004,-0.04005000367760658
