time,seconds_elapsed,z,y,x
1784098586808423400,0.08542333984375,-0.030112499371170998,0.062150001525878906,-0.12828749418258667
1784098586818508300,0.09550830078125,-0.011962499469518661,0.08978749811649323,-0.12196250259876251
1784098586828527600,0.105527587890625,0.011412499472498894,0.1260875016450882,-0.10161250084638596
1784098586838677800,0.115677734375,0.028462499380111694,0.17599999904632568,-0.06544999778270721
1784098586848762400,0.125762451171875,0.03368749842047691,0.2484624981880188,-0.01759999990463257
1784098586858770700,0.135770751953125,0.028462499380111694,0.35062500834465027,0.023924998939037323
1784098586868932000,0.14593212890625,0.020899999886751175,0.49527499079704285,0.037675000727176666
1784098586878912300,0.155912353515625,0.02736249938607216,0.645425021648407,0.04413750022649765
1784098586889101300,0.166101318359375,0.04331250116229057,0.7581750154495239,0.07603749632835388
1784098586899114800,0.17611474609375,0.05816249921917915,0.860337495803833,0.12292499840259552
1784098586909270800,0.186270751953125,0.07947500050067902,1.0029250383377075,0.14836250245571136
1784098586919256600,0.196256591796875,0.12526249885559082,1.112512469291687,0.15592500567436218
1784098586929327400,0.206327392578125,0.19016249477863312,1.0987625122070312,0.18039999902248383
1784098586939525000,0.216525146484375,0.2316875010728836,1.0316624641418457,0.21119999885559082
1784098586949530000,0.226530029296875,0.26042500138282776,1.094499945640564,0.24956250190734863
1784098586959601000,0.236600830078125,0.29878750443458557,1.3967249393463135,0.2985124886035919
1784098586969671700,0.246671630859375,0.2774749994277954,1.6616874933242798,0.2516250014305115
1784098586979742500,0.256742431640625,0.16032500565052032,1.7936874628067017,0.10903749614953995
1784098586989874200,0.266874267578125,0.01993750035762787,1.9234875440597534,0.04413750022649765
1784098586999945000,0.276945068359375,-0.082225002348423,1.9778000116348267,0.17710000276565552
1784098587010046500,0.28704638671875,-0.11838749796152115,1.9054750204086304,0.5293750166893005
1784098587020086800,0.297086669921875,-0.11838749796152115,1.8287500143051147,0.9732249975204468
1784098587030287600,0.30728759765625,-0.13763749599456787,1.9351749420166016,1.3552000522613525
1784098587040372200,0.317372314453125,-0.16637499630451202,2.244962453842163,1.5872999429702759
1784098587050360000,0.327360107421875,-0.11096250265836716,2.588712453842163,1.521299958229065
1784098587060430800,0.337430908203125,0.11137499660253525,2.53439998626709,1.092437505722046
1784098587070532400,0.347532470703125,0.4499000012874603,1.8713749647140503,0.507099986076355
1784098587080603100,0.35760302734375,0.6861249804496765,1.1349250078201294,0.12388750165700912
1784098587090734800,0.36773486328125,0.6499624848365784,0.8912749886512756,0.1260875016450882
1784098587100805600,0.3778056640625,0.467912495136261,0.860337495803833,0.36024999618530273
1784098587110876400,0.38787646484375,0.3423750102519989,0.7485499978065491,0.5486249923706055
1784098587120978000,0.39797802734375,0.28600001335144043,0.6219124794006348,0.5262125134468079
1784098587131048700,0.408048583984375,0.18906250596046448,0.49431249499320984,0.3218874931335449
1784098587141150000,0.41814990234375,0.035887498408555984,0.3591499924659729,0.06751249730587006
1784098587151190300,0.428190185546875,-0.10889999568462372,0.15578749775886536,-0.1303499937057495
1784098587161389000,0.43838916015625,-0.22165000438690186,-0.06971249729394913,-0.22618749737739563
1784098587171362300,0.4483623046875,-0.3078624904155731,-0.24433749914169312,-0.2367749959230423
1784098587181494000,0.458493896484375,-0.3610749840736389,-0.3348124921321869,-0.21559999883174896
1784098587191534300,0.468534423828125,-0.3675374984741211,-0.31033748388290405,-0.21230000257492065
1784098587201635800,0.4786357421875,-0.3227125108242035,-0.14327499270439148,-0.24213749170303345
1784098587211812900,0.488812744140625,-0.25148749351501465,0.057887498289346695,-0.3007124960422516
1784098587221777400,0.49877734375,-0.1929125040769577,0.11110000312328339,-0.38266250491142273
1784098587231878700,0.508878662109375,-0.16101250052452087,0.037675000727176666,-0.47519999742507935
1784098587241949400,0.518949462890625,-0.15138749778270721,0.01209999993443489,-0.5475249886512756
1784098587252081200,0.5290810546875,-0.1695374995470047,0.09404999762773514,-0.5838249921798706
1784098587262236400,0.539236328125,-0.2162874937057495,0.18672500550746918,-0.5773624777793884
1784098587272321000,0.549321044921875,-0.2961750030517578,0.233474999666214,-0.5092999935150146
1784098587282293800,0.559293701171875,-0.4302375018596649,0.17820000648498535,-0.4124999940395355
1784098587292425500,0.569425537109375,-0.5972999930381775,-0.016499999910593033,-0.37097498774528503
1784098587302465800,0.5794658203125,-0.7187125086784363,-0.2293500006198883,-0.44756248593330383
1784098587312660000,0.589659912109375,-0.7559750080108643,-0.3240875005722046,-0.607200026512146
1784098587322637800,0.599637939453125,-0.7580375075340271,-0.33687499165534973,-0.7657374739646912
1784098587332708900,0.609708984375,-0.7654625177383423,-0.3390749990940094,-0.888112485408783
1784098587342840600,0.619840576171875,-0.7665625214576721,-0.33371248841285706,-0.9743250012397766
1784098587352881000,0.629880859375,-0.7548750042915344,-0.3783999979496002,-1.0212124586105347
1784098587363083800,0.640083740234375,-0.7602375149726868,-0.514662504196167,-1.009524941444397
1784098587373083400,0.65008349609375,-0.768625020980835,-0.6965749859809875,-0.9477875232696533
1784098587383154200,0.660154296875,-0.7293000221252441,-0.8775249719619751,-0.8732625246047974
1784098587393225200,0.67022509765625,-0.6197124719619751,-1.0223125219345093,-0.7998374700546265
1784098587403357000,0.68035693359375,-0.46213749051094055,-1.1330000162124634,-0.6997374892234802
1784098587413507300,0.69050732421875,-0.30896249413490295,-1.2309000492095947,-0.5667750239372253
1784098587423529000,0.700529052734375,-0.18548749387264252,-1.2808125019073486,-0.4305124878883362
1784098587433599700,0.710599853515625,-0.07590000331401825,-1.2255375385284424,-0.3581874966621399
1784098587443670800,0.7206708984375,0.04331250116229057,-1.0670000314712524,-0.3932499885559082
1784098587453772000,0.73077197265625,0.15606249868869781,-0.888112485408783,-0.49857500195503235
1784098587463931100,0.74093115234375,0.21463750302791595,-0.8711999654769897,-0.5997750163078308
1784098587473944000,0.750944091796875,0.12416250258684158,-1.1648999452590942,-0.6635749936103821
1784098587483984400,0.760984375,-0.13227500021457672,-1.6512374877929688,-0.7039999961853027
1784098587494185200,0.771185302734375,-0.4376625120639801,-2.010937452316284,-0.7508875131607056
1784098587504270000,0.78127001953125,-0.6495500206947327,-2.059887409210205,-0.8083624839782715
1784098587514354700,0.791354736328125,-0.6994624733924866,-1.8970874547958374,-0.8200500011444092
1784098587524328700,0.80132861328125,-0.6058250069618225,-1.6543999910354614,-0.7891125082969666
1784098587534429700,0.8114296875,-0.40796250104904175,-1.4298624992370605,-0.7764624953269958
1784098587544531200,0.82153125,-0.14822499454021454,-1.3755500316619873,-0.8115249872207642
1784098587559735800,0.83673583984375,0.28806251287460327,-1.880037546157837,-0.8573125004768372
1784098587574863000,0.851863037109375,0.4413749873638153,-2.383424997329712,-0.6689375042915344
1784098587584947700,0.86194775390625,0.42858749628067017,-2.5515875816345215,-0.4538874924182892
1784098587595032600,0.872032470703125,0.3156999945640564,-2.526012420654297,-0.24860000610351562
1784098587605117200,0.8821171875,0.18906250596046448,-2.4855875968933105,-0.07397499680519104
1784098587615202000,0.8922021484375,0.18273749947547913,-2.5493874549865723,0.07493750005960464
1784098587625286700,0.90228662109375,0.3636874854564667,-2.7260749340057373,0.210099995136261
1784098587635371500,0.91237158203125,0.6786999702453613,-2.925037384033203,0.3474625051021576
1784098587645456100,0.9224560546875,0.978725016117096,-2.9368624687194824,0.49857500195503235
1784098587655541000,0.932541015625,1.1064624786376953,-2.61222505569458,0.6315374970436096
1784098587665625600,0.94262548828125,1.0117249488830566,-2.0758373737335205,0.6912124752998352
1784098587675710500,0.95271044921875,0.7638124823570251,-1.6011874675750732,0.6517499685287476
1784098587685795300,0.96279541015625,0.39668750762939453,-1.3415875434875488,0.5123249888420105
1784098587695880000,0.9728798828125,-0.029012499377131462,-1.2266374826431274,0.2835249900817871
1784098587705964800,0.98296484375,-0.38981249928474426,-1.1413874626159668,0.06641250103712082
1784098587716049400,0.99304931640625,-0.6208124756813049,-0.9871125221252441,-0.004812499973922968
1784098587726134000,1.003134033203125,-0.7367249727249146,-0.6646749973297119,0.03987500071525574
1784098587736219000,1.013218994140625,-0.7910374999046326,-0.2656500041484833,0.12182500213384628
1784098587746303500,1.023303466796875,-0.8581374883651733,0.004674999974668026,0.25905001163482666
1784098587756388400,1.033388427734375,-0.9347249865531921,0.14093749225139618,0.3899500072002411
1784098587766473200,1.04347314453125,-0.9975624680519104,0.196212500333786,0.525112509727478
1784098587776557800,1.053557861328125,-1.0166749954223633,0.2601499855518341,0.6591749787330627
1784098587786642700,1.063642578125,-0.9847750067710876,0.25052499771118164,0.7231125235557556
1784098587796727300,1.073727294921875,-0.852774977684021,0.11110000312328339,0.7134875059127808
1784098587806812200,1.083812255859375,-0.6208124756813049,-0.16775000095367432,0.6795250177383423
1784098587816896800,1.093896728515625,-0.36643749475479126,-0.5050374865531921,0.6912124752998352
1784098587826981600,1.103981689453125,-0.10779999941587448,-0.7807250022888184,0.81454998254776
1784098587837066200,1.114066162109375,0.10078749805688858,-0.9073625206947327,0.9700624942779541
1784098587847151000,1.124151123046875,0.14973749220371246,-0.7827875018119812,1.0636999607086182
1784098587857235700,1.134235595703125,0.028462499380111694,-0.47423750162124634,1.0614999532699585
1784098587867320600,1.144320556640625,-0.17379999160766602,-0.03258749842643738,0.9316999912261963
1784098587877405200,1.1544052734375,-0.3792249858379364,0.39311251044273376,0.6997374892234802
1784098587887490000,1.164489990234375,-0.5068249702453613,0.582587480545044,0.4240500032901764
1784098587897575000,1.174574951171875,-0.47808748483657837,0.3793624937534332,0.11329999566078186
1784098587907659500,1.184659423828125,-0.3195500075817108,-0.15070000290870667,-0.1676124930381775
1784098587917744400,1.194744384765625,-0.07479999959468842,-0.7178875207901001,-0.2899875044822693
1784098587927829000,1.2048291015625,0.12732499837875366,-0.14423750340938568,0.24529999494552612
1784098587937913900,1.214913818359375,0.018837500363588333,0.0611874982714653,1.3967249393463135
1784098587947998500,1.22499853515625,-0.5792874693870544,0.1845249980688095,0.8870124816894531
1784098587958083300,1.235083251953125,-0.35475000739097595,0.35062500834465027,1.2424499988555908
1784098587968168000,1.24516796875,-0.3568125069141388,0.29205000400543213,1.5915625095367432
1784098587978252800,1.255252685546875,-0.2503874897956848,0.12278749793767929,0.8295375108718872
1784098587988337400,1.26533740234375,-0.05348749831318855,0.13667500019073486,0.21752500534057617
1784098587998422300,1.27542236328125,-0.05348749831318855,-0.020762499421834946,0.1153625026345253
1784098588008507100,1.285507080078125,0.003987499978393316,-0.03684999793767929,-0.013337500393390656
1784098588018591700,1.295591796875,-0.050324998795986176,-0.03891250118613243,0.01223750039935112
1784098588028676600,1.305676513671875,-0.04496249929070473,-0.011274999938905239,0.004674999974668026
1784098588038761500,1.315761474609375,-0.02474999986588955,-0.0038499999791383743,0.016499999910593033
1784098588048846000,1.32584619140625,-0.022687500342726707,-0.009074999950826168,-0.016499999910593033
1784098588058930700,1.3359306640625,-0.022687500342726707,-0.016499999910593033,-0.04207500070333481
1784098588069015600,1.346015625,-0.015262499451637268,-0.030387500301003456,-0.08043749630451202
1784098588079100200,1.35610009765625,-0.02694999985396862,-0.037812501192092896,-0.11013749986886978
1784098588089185000,1.36618505859375,-0.04606249928474426,-0.04207500070333481,-0.1260875016450882
1784098588099270000,1.376269775390625,-0.057750001549720764,-0.060224998742341995,-0.13887499272823334
1784098588109354500,1.3863544921875,-0.059950001537799835,-0.23154999315738678,-0.08043749630451202
1784098588119439400,1.396439453125,-0.04179999977350235,-0.5730999708175659,0.06751249730587006
1784098588129524000,1.40652392578125,0.037950001657009125,-0.4347749948501587,0.02708750031888485
1784098588139608800,1.41660888671875,0.17531250417232513,-0.3357749879360199,-0.015537500381469727
1784098588149693400,1.426693359375,0.26785001158714294,-0.5103999972343445,0.13557499647140503
1784098588159778300,1.4367783203125,0.1966249942779541,-0.5135625004768372,0.3335750102996826
1784098588169863000,1.44686279296875,0.06572499871253967,-0.654087483882904,0.8391624689102173
1784098588179947800,1.45694775390625,0.24447499215602875,-0.8711999654769897,1.4117125272750854
1784098588190032400,1.467032470703125,0.4456374943256378,-0.04743750020861626,1.3233000040054321
1784098588200117200,1.4771171875,0.6232874989509583,0.6059625148773193,1.2647249698638916
1784098588210201900,1.487201904296875,1.0799249410629272,0.9007624983787537,1.5552624464035034
1784098588220286700,1.49728662109375,1.4948999881744385,0.9752874970436096,2.0693750381469727
1784098588230371600,1.50737158203125,1.0968375205993652,1.7670124769210815,3.0175750255584717
1784098588240456200,1.517456298828125,0.3104749917984009,2.8898375034332275,2.078862428665161
1784098588250541000,1.527541015625,0.054999999701976776,1.53725004196167,0.07067500054836273
1784098588260625700,1.537625732421875,-0.219587504863739,0.42294999957084656,0.06435000151395798
1784098588270710500,1.54771044921875,-0.0035749999806284904,0.20473749935626984,-0.0611874982714653
1784098588280795400,1.55779541015625,-0.006737499963492155,0.09404999762773514,-0.0037124999798834324
1784098588290880000,1.5678798828125,-0.0056374999694526196,0.12925000488758087,-0.0016499999910593033
1784098588300964600,1.577964599609375,0.010312499478459358,0.2718375027179718,0.062150001525878906
1784098588311049500,1.588049560546875,-0.00989999994635582,0.5123249888420105,-0.013337500393390656
1784098588321134000,1.598134033203125,-0.035475000739097595,0.7561125159263611,0.0015124999918043613
1784098588331219000,1.608218994140625,-0.10037499666213989,1.1668249368667603,-0.04097500070929527
1784098588341303800,1.6183037109375,-0.17489999532699585,1.7351125478744507,-0.0835999995470047
1784098588351388400,1.628388427734375,-0.22591249644756317,2.3172874450683594,-0.10381250083446503
1784098588361473300,1.638473388671875,-0.28132501244544983,2.475825071334839,-0.2102375030517578
1784098588371558000,1.648557861328125,-0.41222500801086426,1.0848749876022339,-0.43367499113082886
1784098588381642500,1.658642578125,-0.09611249715089798,-0.09748750180006027,-0.07617499679327011
1784098588391727400,1.668727294921875,0.025162499397993088,-0.12086249887943268,0.08772499859333038
1784098588401812000,1.67881201171875,-0.010999999940395355,0.04619999974966049,-0.02186249941587448
1784098588411896800,1.688896728515625,-0.002474999986588955,0.025987500324845314,-0.011274999938905239
1784098588421981700,1.698981689453125,0.003987499978393316,-0.04427500069141388,0.010037500411272049
1784098588432066300,1.70906640625,0.0006874999962747097,-0.02722499892115593,0.025987500324845314
1784098588442151200,1.719151123046875,-0.042899999767541885,0.42611250281333923,-0.058024998754262924
1784098588452235800,1.72923583984375,-0.12691250443458557,1.278612494468689,0.052662499248981476
1784098588462320600,1.739320556640625,-0.17916250228881836,2.0714375972747803,-0.23251250386238098
1784098588472405200,1.7494052734375,-0.35048750042915344,2.5748250484466553,-0.5880874991416931
1784098588482490000,1.759489990234375,-0.23553749918937683,4.371262550354004,0.7199500203132629
1784098588492574700,1.76957470703125,-0.1886499971151352,4.620275020599365,0.39957499504089355
1784098588502659600,1.77965966796875,-0.21422499418258667,-1.4031875133514404,0.19208750128746033
1784098588512744400,1.789744384765625,-0.28558748960494995,-1.479912519454956,-0.40603750944137573
1784098588522829000,1.7998291015625,-0.3749625086784363,0.32298749685287476,-0.5560500025749207
1784098588532914000,1.809913818359375,-0.050324998795986176,2.225712537765503,0.1260875016450882
1784098588542998500,1.81999853515625,-0.0035749999806284904,-0.6965749859809875,-0.08139999955892563
1784098588553083400,1.83008349609375,0.026262499392032623,-0.4464625120162964,-0.04001250118017197
1784098588563168300,1.840168212890625,-0.02474999986588955,0.4123624861240387,0.01223750039935112
1784098588573252900,1.8502529296875,-0.007699999958276749,0.06324999779462814,-0.028187500312924385
1784098588583337700,1.860337646484375,0.01347499992698431,-0.09212499856948853,0.004674999974668026
1784098588593422300,1.87042236328125,-0.007699999958276749,0.06861250102519989,0.0005499999970197678
1784098588603507200,1.880507080078125,0.0017874999903142452,-0.03464999794960022,-0.010174999944865704
1784098588613591800,1.890591796875,-0.0013749999925494194,0.01966249942779541,0.011137500405311584
1784098588623676700,1.9006767578125,-0.0002749999985098839,-0.010174999944865704,-0.01223750039935112
1784098588633761500,1.910761474609375,-0.0013749999925494194,0.004674999974668026,0.007974999956786633
1784098588643846100,1.92084619140625,-0.0002749999985098839,0.0015124999918043613,-0.002749999985098839
1784098588653931000,1.930930908203125,-0.0002749999985098839,-0.002749999985098839,-0.002749999985098839
1784098588664016000,1.941015869140625,-0.0002749999985098839,0.002612499985843897,0.004674999974668026
1784098588674100500,1.9511005859375,-0.0002749999985098839,0.0004124999977648258,-0.005912499967962503
1784098588684185300,1.961185302734375,0.0006874999962747097,-0.0005499999970197678,0.0037124999798834324
1784098588694270000,1.97127001953125,-0.0002749999985098839,0.0004124999977648258,-0.0016499999910593033
1784098588704354800,1.981354736328125,-0.0002749999985098839,-0.0005499999970197678,0.0005499999970197678
1784098588714439700,1.991439697265625,-0.0002749999985098839,-0.0005499999970197678,0.0015124999918043613
1784098588724524300,2.001524169921875,0.0006874999962747097,-0.0016499999910593033,-0.0005499999970197678
1784098588734609200,2.011609130859375,0.0006874999962747097,0.0004124999977648258,0.0015124999918043613
1784098588744693800,2.02169384765625,-0.0002749999985098839,-0.0005499999970197678,0.0005499999970197678
1784098588754778600,2.031778564453125,-0.0002749999985098839,0.0004124999977648258,0.0005499999970197678
1784098588764863500,2.041863525390625,0.0006874999962747097,0.0004124999977648258,0.0015124999918043613
1784098588774948000,2.051947998046875,0.0006874999962747097,-0.0005499999970197678,0.0005499999970197678
1784098588785033000,2.062032958984375,-0.0002749999985098839,0.0004124999977648258,0.0005499999970197678
1784098588795117800,2.072117919921875,-0.0002749999985098839,0.0004124999977648258,0.0005499999970197678
1784098588805202400,2.082202392578125,-0.0002749999985098839,0.0004124999977648258,-0.0005499999970197678
1784098588815287300,2.092287353515625,-0.0002749999985098839,-0.0005499999970197678,0.0005499999970197678
1784098588825372000,2.102371826171875,0.0006874999962747097,-0.0005499999970197678,-0.0005499999970197678
1784098588835456800,2.112456787109375,-0.0002749999985098839,-0.0005499999970197678,0.0005499999970197678
1784098588845541400,2.122541259765625,-0.0002749999985098839,-0.0005499999970197678,-0.0005499999970197678
1784098588855626200,2.132626220703125,-0.0002749999985098839,0.0004124999977648258,0.0005499999970197678
1784098588865710800,2.1427109375,-0.0013749999925494194,0.0004124999977648258,-0.0005499999970197678
1784098588875795700,2.152795654296875,-0.0002749999985098839,0.0004124999977648258,-0.0005499999970197678
1784098588885880300,2.16288037109375,0.0006874999962747097,0.0004124999977648258,-0.0005499999970197678
1784098588895965200,2.172965087890625,-0.0002749999985098839,0.0004124999977648258,0.0005499999970197678
1784098588906050000,2.183050048828125,-0.0002749999985098839,0.0004124999977648258,0.0005499999970197678
1784098588916134700,2.193134765625,0.0006874999962747097,0.0004124999977648258,-0.0005499999970197678
1784098588926219500,2.203219482421875,-0.0002749999985098839,0.0004124999977648258,-0.0005499999970197678
1784098588936304400,2.213304443359375,-0.0002749999985098839,-0.0005499999970197678,0.0005499999970197678
1784098588946389000,2.223388916015625,-0.0002749999985098839,0.0004124999977648258,-0.0005499999970197678
1784098588956473900,2.233473876953125,0.0006874999962747097,0.0004124999977648258,-0.0005499999970197678
1784098588966558500,2.243558349609375,-0.0002749999985098839,-0.0005499999970197678,0.0005499999970197678
1784098588976643300,2.253643310546875,0.0006874999962747097,-0.0005499999970197678,-0.0005499999970197678
1784098588986728200,2.263728271484375,-0.0002749999985098839,0.0004124999977648258,-0.0005499999970197678
1784098588996812800,2.273812744140625,-0.0002749999985098839,0.0004124999977648258,0.0005499999970197678
1784098589006897700,2.283897705078125,-0.0002749999985098839,-0.0005499999970197678,-0.0005499999970197678
1784098589016982500,2.293982421875,-0.0002749999985098839,0.0004124999977648258,-0.0005499999970197678
1784098589027067100,2.304067138671875,-0.0002749999985098839,-0.0005499999970197678,0.0005499999970197678
1784098589037152000,2.314152099609375,-0.0002749999985098839,-0.0005499999970197678,0.0005499999970197678
1784098589047236900,2.32423681640625,-0.0002749999985098839,-0.0005499999970197678,0.0005499999970197678
1784098589057321700,2.33432177734375,0.0006874999962747097,-0.0016499999910593033,0.0005499999970197678
1784098589067406300,2.34440625,-0.0002749999985098839,-0.0005499999970197678,-0.0005499999970197678
1784098589077491200,2.3544912109375,0.0006874999962747097,0.0004124999977648258,-0.0005499999970197678
1784098589087576000,2.364576171875,-0.0002749999985098839,0.0004124999977648258,0.0005499999970197678
1784098589097660700,2.37466064453125,0.0006874999962747097,-0.0016499999910593033,0.0005499999970197678
1784098589107745500,2.38474560546875,-0.0002749999985098839,-0.0016499999910593033,-0.0016499999910593033
1784098589117830400,2.394830322265625,-0.0002749999985098839,0.0004124999977648258,-0.0005499999970197678
1784098589127915000,2.4049150390625,-0.0002749999985098839,0.0004124999977648258,-0.0005499999970197678
1784098589138000000,2.414999755859375,0.0006874999962747097,0.0015124999918043613,0.0005499999970197678
1784098589148084700,2.425084716796875,0.0006874999962747097,0.0004124999977648258,0.0015124999918043613
1784098589158169300,2.43516943359375,-0.0002749999985098839,-0.0005499999970197678,-0.0005499999970197678
1784098589168254200,2.445254150390625,0.0006874999962747097,-0.0005499999970197678,0.0005499999970197678
1784098589178339000,2.455339111328125,-0.0002749999985098839,0.0004124999977648258,-0.0005499999970197678
1784098589188423700,2.465423583984375,-0.0002749999985098839,-0.0005499999970197678,-0.0016499999910593033
1784098589198508500,2.475508544921875,-0.0002749999985098839,0.0004124999977648258,0.0005499999970197678
1784098589208593200,2.48559326171875,-0.0002749999985098839,0.0004124999977648258,0.0005499999970197678
1784098589218678000,2.495677978515625,-0.0002749999985098839,-0.0005499999970197678,-0.0005499999970197678
1784098589228763000,2.505762939453125,-0.0002749999985098839,0.0015124999918043613,0.0005499999970197678
1784098589238847500,2.515847412109375,0.0006874999962747097,0.0004124999977648258,-0.0005499999970197678
1784098589248932400,2.525932373046875,-0.0002749999985098839,-0.0005499999970197678,-0.0005499999970197678
1784098589259017200,2.536017333984375,-0.0002749999985098839,0.0004124999977648258,0.0015124999918043613
1784098589269101800,2.546101806640625,0.0006874999962747097,0.0004124999977648258,0.0005499999970197678
1784098589279186700,2.556186767578125,0.0006874999962747097,-0.0005499999970197678,-0.0005499999970197678
1784098589289271600,2.566271484375,0.0006874999962747097,0.0015124999918043613,0.0015124999918043613
1784098589299356400,2.5763564453125,-0.0002749999985098839,-0.0005499999970197678,-0.0005499999970197678
1784098589309441000,2.58644091796875,-0.0002749999985098839,0.0004124999977648258,-0.0016499999910593033
1784098589319526000,2.59652587890625,-0.0002749999985098839,0.0015124999918043613,0.0005499999970197678
1784098589329610800,2.60661083984375,0.0006874999962747097,0.0004124999977648258,0.0005499999970197678
1784098589339695400,2.6166953125,0.0006874999962747097,-0.0005499999970197678,-0.0005499999970197678
1784098589349780200,2.6267802734375,-0.0002749999985098839,0.0015124999918043613,0.006874999962747097
1784098589359865000,2.636864990234375,0.0017874999903142452,-0.002749999985098839,0.0005499999970197678
1784098589369949700,2.64694970703125,-0.0002749999985098839,-0.0038499999791383743,-0.004812499973922968
1784098589380034600,2.65703466796875,-0.0002749999985098839,0.0037124999798834324,-0.0016499999910593033
1784098589390119400,2.667119384765625,-0.0002749999985098839,0.002612499985843897,-0.0005499999970197678
1784098589400204300,2.677204345703125,0.0006874999962747097,-0.0005499999970197678,-0.0005499999970197678
1784098589410289000,2.687288818359375,-0.0002749999985098839,0.0015124999918043613,0.0037124999798834324
1784098589420373800,2.697373779296875,0.0006874999962747097,-0.0005499999970197678,0.0005499999970197678
1784098589430458600,2.707458740234375,-0.0013749999925494194,-0.0005499999970197678,-0.0005499999970197678
1784098589440543200,2.717543212890625,0.0006874999962747097,-0.0005499999970197678,0.0005499999970197678
1784098589450628400,2.72762841796875,-0.0002749999985098839,0.0004124999977648258,-0.0005499999970197678
1784098589460713000,2.737712890625,-0.0002749999985098839,0.0004124999977648258,0.0005499999970197678
1784098589470797800,2.7477978515625,-0.0002749999985098839,0.0004124999977648258,0.0015124999918043613
1784098589480882400,2.75788232421875,-0.0002749999985098839,0.0004124999977648258,-0.0005499999970197678
1784098589490967300,2.76796728515625,-0.0002749999985098839,0.0004124999977648258,-0.0016499999910593033
1784098589501052200,2.77805224609375,-0.0002749999985098839,0.0015124999918043613,-0.0005499999970197678
1784098589511137000,2.788136962890625,-0.0002749999985098839,0.0004124999977648258,0.0005499999970197678
1784098589521222000,2.798221923828125,-0.0002749999985098839,-0.0005499999970197678,0.0005499999970197678
1784098589531306500,2.808306396484375,-0.0002749999985098839,0.0004124999977648258,0.0005499999970197678
1784098589541391400,2.818391357421875,0.0006874999962747097,0.0004124999977648258,0.0005499999970197678
1784098589551476200,2.828476318359375,-0.0002749999985098839,-0.0005499999970197678,0.0005499999970197678
1784098589561560800,2.838560791015625,-0.0002749999985098839,0.0004124999977648258,-0.0005499999970197678
1784098589571645700,2.848645751953125,-0.0002749999985098839,-0.0005499999970197678,0.0005499999970197678
1784098589581730600,2.85873046875,-0.0002749999985098839,-0.0005499999970197678,0.0005499999970197678
1784098589591815400,2.8688154296875,-0.0002749999985098839,0.0004124999977648258,0.0005499999970197678
1784098589601900300,2.878900390625,0.0006874999962747097,-0.0005499999970197678,-0.0005499999970197678
1784098589611985000,2.88898486328125,-0.0002749999985098839,-0.0005499999970197678,0.0005499999970197678
1784098589622069800,2.89906982421875,0.0006874999962747097,-0.0005499999970197678,0.0005499999970197678
1784098589632154600,2.909154541015625,0.0006874999962747097,-0.0005499999970197678,0.0005499999970197678
1784098589642239500,2.919239501953125,0.0006874999962747097,-0.0005499999970197678,-0.0005499999970197678
1784098589652324000,2.929323974609375,-0.0002749999985098839,-0.0005499999970197678,0.0005499999970197678
1784098589662409000,2.939408935546875,-0.0002749999985098839,-0.0005499999970197678,-0.0005499999970197678
1784098589672493800,2.949493896484375,0.0006874999962747097,-0.0005499999970197678,0.0005499999970197678
1784098589682578700,2.95957861328125,0.0006874999962747097,-0.0005499999970197678,0.0005499999970197678
1784098589692663600,2.96966357421875,0.0006874999962747097,-0.0005499999970197678,-0.0005499999970197678
1784098589702748200,2.979748046875,-0.0002749999985098839,-0.0005499999970197678,-0.0005499999970197678
1784098589712833000,2.9898330078125,0.0006874999962747097,-0.0005499999970197678,0.0005499999970197678
1784098589722918000,2.99991796875,-0.0002749999985098839,-0.0005499999970197678,-0.0005499999970197678
1784098589733002800,3.010002685546875,-0.0002749999985098839,-0.0004124999977648258,0.0004124999977648258
1784098589743087400,3.02008740234375,-0.0002749999985098839,-0.0004124999977648258,-0.0005499999970197678
1784098589753172200,3.030172119140625,0.0008249999955296516,0.0005499999970197678,-0.0005499999970197678
1784098589763257000,3.040257080078125,-0.0002749999985098839,-0.0004124999977648258,0.0004124999977648258
1784098589773342000,3.050342041015625,-0.0002749999985098839,-0.0004124999977648258,0.0004124999977648258
1784098589783426800,3.0604267578125,0.0008249999955296516,0.0005499999970197678,-0.0005499999970197678
1784098589793511700,3.07051171875,-0.0002749999985098839,0.0016499999910593033,0.0015124999918043613
1784098589803596500,3.080596435546875,-0.0002749999985098839,0.0005499999970197678,-0.0005499999970197678
1784098589813681400,3.090681396484375,-0.0002749999985098839,-0.0004124999977648258,-0.0005499999970197678
1784098589823766000,3.10076611328125,-0.0002749999985098839,-0.0004124999977648258,-0.0005499999970197678
1784098589833851000,3.110850830078125,-0.0002749999985098839,0.0005499999970197678,-0.0005499999970197678
1784098589843935700,3.120935791015625,-0.0002749999985098839,-0.0004124999977648258,-0.0005499999970197678
1784098589854020600,3.1310205078125,-0.0002749999985098839,-0.0004124999977648258,0.0004124999977648258
1784098589864105500,3.14110546875,-0.0002749999985098839,0.0005499999970197678,0.0004124999977648258
1784098589874190300,3.1511904296875,-0.0002749999985098839,0.0005499999970197678,-0.0005499999970197678
1784098589884275000,3.16127490234375,0.0008249999955296516,0.0005499999970197678,-0.0005499999970197678
1784098589894359800,3.17135986328125,-0.0002749999985098839,0.0005499999970197678,-0.0005499999970197678
1784098589904444700,3.181444580078125,0.02213750034570694,-0.007974999956786633,0.0015124999918043613
1784098589914529500,3.191529541015625,-0.023649999871850014,0.01979999989271164,-0.0005499999970197678
1784098589924614400,3.201614501953125,-0.0012374999932944775,-0.011137500405311584,0.0015124999918043613
1784098589934699000,3.211698974609375,0.013612499460577965,0.002749999985098839,0.0015124999918043613
1784098589944784000,3.221783935546875,-0.005499999970197678,0.0005499999970197678,0.0004124999977648258
1784098589954868700,3.23186865234375,-0.002337499987334013,0.0005499999970197678,-0.0016499999910593033
1784098589964953600,3.24195361328125,-0.0002749999985098839,0.0005499999970197678,0.0015124999918043613
1784098589975038500,3.25203857421875,0.0008249999955296516,0.0005499999970197678,-0.0005499999970197678
1784098589985123300,3.262123291015625,-0.0002749999985098839,-0.0004124999977648258,-0.0016499999910593033
1784098589995208000,3.2722080078125,-0.0002749999985098839,-0.0004124999977648258,0.0004124999977648258
1784098590005292800,3.282292724609375,0.0008249999955296516,-0.0004124999977648258,-0.0005499999970197678
1784098590015377700,3.292377685546875,0.0008249999955296516,-0.0004124999977648258,-0.0005499999970197678
1784098590025462500,3.302462646484375,0.0008249999955296516,0.0005499999970197678,-0.0005499999970197678
1784098590035547400,3.31254736328125,0.0008249999955296516,-0.0004124999977648258,-0.0005499999970197678
1784098590045632000,3.322632080078125,-0.0002749999985098839,-0.0004124999977648258,-0.0005499999970197678
1784098590055716900,3.332716796875,0.0008249999955296516,0.0005499999970197678,-0.0005499999970197678
1784098590065801700,3.3428017578125,-0.0002749999985098839,0.0005499999970197678,0.0004124999977648258
1784098590075886600,3.352886474609375,-0.0002749999985098839,-0.0004124999977648258,0.0004124999977648258
1784098590085971500,3.362971435546875,-0.0002749999985098839,0.0005499999970197678,0.0004124999977648258
1784098590096056300,3.373056396484375,-0.0002749999985098839,0.0016499999910593033,-0.0005499999970197678
1784098590106141200,3.38314111328125,-0.0002749999985098839,-0.002612499985843897,-0.002749999985098839
1784098590116226000,3.39322607421875,-0.0034374999813735485,0.016499999910593033,-0.005912499967962503
1784098590126310700,3.403310546875,0.005087499972432852,-0.023924998939037323,0.01966249942779541
1784098590136395500,3.4133955078125,-0.002337499987334013,0.01759999990463257,-0.005912499967962503
1784098590146480400,3.42348046875,-0.002337499987334013,-0.0015124999918043613,-0.002749999985098839
1784098590156565200,3.433565185546875,0.0030249999836087227,-0.010037500411272049,0.002612499985843897
1784098590166650000,3.443650146484375,-0.002337499987334013,0.011274999938905239,-0.011274999938905239
1784098590176734700,3.453734619140625,0.0008249999955296516,-0.0004124999977648258,0.011137500405311584
1784098590186819800,3.46381982421875,-0.0002749999985098839,0.0005499999970197678,-0.010174999944865704
1784098590196904400,3.473904541015625,0.0008249999955296516,-0.0015124999918043613,0.004674999974668026
1784098590206989300,3.4839892578125,-0.0002749999985098839,0.0005499999970197678,0.002612499985843897
1784098590217074200,3.49407421875,-0.0002749999985098839,0.002749999985098839,0.0004124999977648258
1784098590227159000,3.504158935546875,-0.0002749999985098839,-0.0004124999977648258,-0.0005499999970197678
1784098590237244000,3.514243896484375,-0.0013749999925494194,0.0004124999977648258,0.0005499999970197678
1784098590247328500,3.52432861328125,-0.0002749999985098839,0.0004124999977648258,-0.0005499999970197678
1784098590257413400,3.534413330078125,-0.0002749999985098839,0.0015124999918043613,0.002612499985843897
1784098590267498200,3.544498291015625,-0.0013749999925494194,-0.0016499999910593033,-0.0005499999970197678
1784098590277583000,3.5545830078125,-0.0002749999985098839,0.0004124999977648258,-0.0005499999970197678
1784098590287668000,3.56466796875,0.0017874999903142452,-0.0005499999970197678,0.0015124999918043613
1784098590297752800,3.5747529296875,-0.0002749999985098839,-0.0005499999970197678,-0.0005499999970197678
1784098590307837700,3.584837646484375,0.0006874999962747097,-0.0016499999910593033,0.0005499999970197678
1784098590317922300,3.59492236328125,-0.0002749999985098839,-0.0016499999910593033,0.0015124999918043613
1784098590328007200,3.605007080078125,-0.0002749999985098839,-0.0016499999910593033,-0.0016499999910593033
1784098590338092000,3.615092041015625,0.0006874999962747097,-0.002749999985098839,-0.0016499999910593033
1784098590348177000,3.625177001953125,0.0006874999962747097,-0.002749999985098839,-0.0005499999970197678
1784098590358261800,3.63526171875,0.0006874999962747097,-0.0005499999970197678,-0.0016499999910593033
1784098590368346600,3.6453466796875,0.0006874999962747097,-0.0005499999970197678,-0.0016499999910593033
1784098590378431200,3.65543115234375,-0.0002749999985098839,0.0004124999977648258,-0.0005499999970197678
1784098590388516400,3.665516357421875,-0.0002749999985098839,-0.0016499999910593033,-0.0005499999970197678
1784098590398601000,3.67560107421875,0.0006874999962747097,0.0004124999977648258,-0.0005499999970197678
1784098590408685800,3.685685791015625,-0.0002749999985098839,0.0004124999977648258,0.0005499999970197678
1784098590418770700,3.695770751953125,-0.0002749999985098839,0.0015124999918043613,-0.0005499999970197678
1784098590428855600,3.70585546875,-0.0002749999985098839,0.0015124999918043613,0.0005499999970197678
1784098590438940400,3.7159404296875,-0.0002749999985098839,-0.0005499999970197678,0.0015124999918043613
1784098590449025300,3.726025390625,-0.0002749999985098839,-0.0005499999970197678,0.002612499985843897
1784098590459110100,3.736110107421875,-0.0002749999985098839,0.0004124999977648258,0.0005499999970197678
1784098590469194800,3.74619482421875,-0.0002749999985098839,0.0004124999977648258,0.0015124999918043613
1784098590479279600,3.756279541015625,-0.0013749999925494194,-0.0016499999910593033,0.0015124999918043613
1784098590489364500,3.766364501953125,-0.0002749999985098839,-0.0005499999970197678,0.0005499999970197678
1784098590499449300,3.776449462890625,0.0006874999962747097,-0.0005499999970197678,0.0015124999918043613
1784098590509534200,3.7865341796875,-0.0002749999985098839,-0.0005499999970197678,0.0005499999970197678
1784098590519619000,3.796619140625,-0.0013749999925494194,0.0004124999977648258,0.0005499999970197678
1784098590529704000,3.806703857421875,-0.0002749999985098839,0.0015124999918043613,-0.0005499999970197678
1784098590539788500,3.81678857421875,-0.0013749999925494194,0.0015124999918043613,-0.0005499999970197678
1784098590549873400,3.826873291015625,-0.0013749999925494194,0.0015124999918043613,-0.0005499999970197678
1784098590559958300,3.836958251953125,-0.0013749999925494194,0.0004124999977648258,-0.0005499999970197678
1784098590570043100,3.847043212890625,-0.0013749999925494194,0.002612499985843897,-0.0005499999970197678
1784098590580128000,3.8571279296875,-0.0013749999925494194,0.0015124999918043613,0.0005499999970197678
1784098590590212900,3.867212890625,-0.0002749999985098839,0.0004124999977648258,-0.0016499999910593033
1784098590600297500,3.87729736328125,-0.0002749999985098839,0.0004124999977648258,-0.0005499999970197678
1784098590610382300,3.88738232421875,0.0006874999962747097,0.0004124999977648258,-0.0016499999910593033
1784098590620467200,3.89746728515625,0.0006874999962747097,-0.0005499999970197678,0.0005499999970197678
1784098590630552000,3.907552001953125,0.0006874999962747097,-0.0005499999970197678,-0.0005499999970197678
1784098590640637000,3.917636962890625,0.0006874999962747097,-0.0016499999910593033,-0.0005499999970197678
1784098590650721800,3.9277216796875,0.0006874999962747097,-0.0016499999910593033,0.0005499999970197678
1784098590660806400,3.937806396484375,0.0006874999962747097,-0.0016499999910593033,0.0005499999970197678
1784098590670891300,3.947891357421875,0.0006874999962747097,-0.0016499999910593033,-0.0005499999970197678
1784098590680976100,3.95797607421875,-0.0002749999985098839,-0.0016499999910593033,0.0005499999970197678
1784098590691061000,3.96806103515625,0.0006874999962747097,-0.0016499999910593033,-0.0005499999970197678
1784098590701145900,3.978145751953125,-0.0002749999985098839,-0.0016499999910593033,-0.0005499999970197678
1784098590711230700,3.988230712890625,-0.0013749999925494194,-0.0005499999970197678,-0.0005499999970197678
1784098590721315600,3.998315673828125,-0.0002749999985098839,-0.0005499999970197678,-0.0005499999970197678
1784098590731400400,4.008400390625,-0.0002749999985098839,0.0004124999977648258,0.0005499999970197678
1784098590741485300,4.0184853515625,-0.0002749999985098839,0.0005499999970197678,-0.0005499999970197678
1784098590751570000,4.02856982421875,-0.0002749999985098839,0.0005499999970197678,-0.0005499999970197678
1784098590761654800,4.03865478515625,0.0006874999962747097,0.0005499999970197678,-0.0005499999970197678
1784098590771739600,4.04873974609375,-0.0002749999985098839,0.0005499999970197678,0.0005499999970197678
1784098590781824500,4.058824462890625,0.0006874999962747097,0.0005499999970197678,-0.0005499999970197678
1784098590791909400,4.068909423828125,0.0006874999962747097,0.0005499999970197678,-0.0005499999970197678
1784098590801994200,4.078994140625,0.0006874999962747097,0.0005499999970197678,0.0005499999970197678
1784098590812079000,4.0890791015625,-0.0002749999985098839,0.0005499999970197678,-0.0005499999970197678
1784098590822164000,4.0991640625,0.0006874999962747097,0.0005499999970197678,0.0005499999970197678
1784098590832248600,4.10924853515625,-0.0002749999985098839,-0.0005499999970197678,-0.0005499999970197678
1784098590842333400,4.11933349609375,-0.0002749999985098839,0.0005499999970197678,0.0005499999970197678
1784098590852418300,4.129418212890625,-0.0013749999925494194,0.0016499999910593033,0.0005499999970197678
1784098590862503200,4.139503173828125,-0.0002749999985098839,0.0016499999910593033,0.0005499999970197678
1784098590872588000,4.149588134765625,-0.0002749999985098839,0.0016499999910593033,0.0005499999970197678
1784098590882673000,4.1596728515625,-0.0002749999985098839,0.0005499999970197678,-0.002749999985098839
1784098590892757800,4.1697578125,-0.0013749999925494194,0.0005499999970197678,0.002612499985843897
1784098590902842400,4.17984228515625,-0.0013749999925494194,-0.0016499999910593033,-0.0016499999910593033
1784098590912927200,4.18992724609375,-0.0013749999925494194,0.004812499973922968,0.0015124999918043613
1784098590923012000,4.20001220703125,-0.0002749999985098839,0.0005499999970197678,-0.002749999985098839
1784098590933097000,4.210096923828125,-0.0002749999985098839,-0.002612499985843897,-0.0005499999970197678
1784098590943181800,4.220181884765625,-0.0013749999925494194,0.0037124999798834324,-0.0005499999970197678
1784098590953266700,4.2302666015625,-0.0002749999985098839,-0.0016499999910593033,0.0005499999970197678
1784098590963351600,4.2403515625,0.0006874999962747097,-0.002612499985843897,0.0015124999918043613
1784098590973436400,4.2504365234375,-0.0002749999985098839,0.002612499985843897,-0.0005499999970197678
1784098590983521300,4.260521240234375,-0.0002749999985098839,0.0005499999970197678,0.0005499999970197678
1784098590993606000,4.27060595703125,0.0017874999903142452,-0.0037124999798834324,-0.0016499999910593033
1784098591003690800,4.280690673828125,-0.0002749999985098839,0.0005499999970197678,0.0015124999918043613
1784098591013775600,4.290775634765625,0.0006874999962747097,-0.0016499999910593033,-0.0016499999910593033
1784098591023860500,4.300860595703125,0.0006874999962747097,-0.0016499999910593033,0.0005499999970197678
1784098591033945300,4.3109453125,0.0006874999962747097,0.0005499999970197678,0.0005499999970197678
1784098591044030200,4.3210302734375,-0.0002749999985098839,-0.0005499999970197678,0.0005499999970197678
1784098591054114800,4.33111474609375,-0.0002749999985098839,-0.0005499999970197678,0.0015124999918043613
1784098591064199700,4.34119970703125,-0.0002749999985098839,0.0016499999910593033,0.0005499999970197678
1784098591074284500,4.351284423828125,-0.0013749999925494194,0.0005499999970197678,0.0005499999970197678
1784098591084369400,4.361369384765625,-0.0002749999985098839,0.0005499999970197678,-0.0005499999970197678
1784098591094454300,4.371454345703125,-0.0013749999925494194,0.0005499999970197678,0.0005499999970197678
1784098591104539100,4.3815390625,-0.0013749999925494194,0.0005499999970197678,0.0005499999970197678
1784098591114624000,4.3916240234375,0.0006874999962747097,0.0005499999970197678,0.0037124999798834324
1784098591124708600,4.40170849609375,0.0006874999962747097,-0.0005499999970197678,-0.0016499999910593033
1784098591134793500,4.41179345703125,-0.0002749999985098839,-0.0005499999970197678,-0.0016499999910593033
1784098591144878300,4.42187841796875,-0.0002749999985098839,0.0016499999910593033,0.0005499999970197678
1784098591154963200,4.431963134765625,0.0006874999962747097,-0.0005499999970197678,-0.0005499999970197678
1784098591165048000,4.442048095703125,-0.0002749999985098839,0.0005499999970197678,-0.0005499999970197678
1784098591175133000,4.4521328125,-0.0002749999985098839,-0.0005499999970197678,0.0005499999970197678
1784098591185217500,4.462217529296875,-0.0002749999985098839,0.0005499999970197678,-0.0016499999910593033
1784098591195302400,4.472302490234375,0.0006874999962747097,0.0016499999910593033,-0.0005499999970197678
1784098591205387300,4.48238720703125,0.0006874999962747097,0.0005499999970197678,-0.0005499999970197678
1784098591215472000,4.49247216796875,-0.0002749999985098839,0.0005499999970197678,0.0005499999970197678
1784098591225557000,4.502556884765625,-0.0002749999985098839,-0.0005499999970197678,-0.0005499999970197678
1784098591235641900,4.512641845703125,0.0006874999962747097,0.0005499999970197678,-0.0016499999910593033
1784098591245726700,4.522726806640625,-0.0002749999985098839,0.0037124999798834324,0.0004124999977648258
1784098591255811300,4.532811279296875,0.0006874999962747097,-0.0015124999918043613,-0.0016499999910593033
1784098591265896400,4.542896484375,0.0006874999962747097,-0.0005499999970197678,0.002612499985843897
1784098591275981000,4.55298095703125,0.0006874999962747097,0.0016499999910593033,-0.0005499999970197678
1784098591286066000,4.56306591796875,0.0017874999903142452,-0.0015124999918043613,0.002612499985843897
1784098591296150500,4.573150634765625,0.0006874999962747097,-0.0015124999918043613,-0.0005499999970197678
1784098591306235400,4.5832353515625,0.0006874999962747097,0.0005499999970197678,0.002612499985843897
1784098591316320300,4.5933203125,0.0006874999962747097,-0.0015124999918043613,-0.0005499999970197678
1784098591326405000,4.603405029296875,0.0017874999903142452,-0.0015124999918043613,0.0015124999918043613
1784098591336490000,4.613489990234375,-0.0002749999985098839,-0.0015124999918043613,0.0015124999918043613
1784098591346574800,4.623574951171875,0.0006874999962747097,-0.0015124999918043613,-0.0005499999970197678
1784098591356659700,4.63365966796875,0.0017874999903142452,-0.0005499999970197678,0.0015124999918043613
1784098591366744300,4.643744384765625,0.0006874999962747097,-0.0005499999970197678,-0.0005499999970197678
1784098591376829200,4.6538291015625,-0.0002749999985098839,0.0005499999970197678,0.0015124999918043613
1784098591386914000,4.6639140625,-0.0002749999985098839,0.0005499999970197678,-0.0005499999970197678
1784098591396999000,4.6739990234375,-0.0002749999985098839,0.0005499999970197678,-0.0005499999970197678
1784098591407083800,4.684083740234375,-0.0002749999985098839,0.0005499999970197678,-0.0005499999970197678
1784098591417168600,4.694168701171875,-0.0002749999985098839,0.0016499999910593033,0.0004124999977648258
1784098591427253200,4.704253173828125,0.0006874999962747097,0.0016499999910593033,-0.0005499999970197678
1784098591437338000,4.714338134765625,-0.0002749999985098839,0.0005499999970197678,0.0004124999977648258
1784098591447423000,4.724423095703125,-0.0002749999985098839,0.0005499999970197678,-0.0005499999970197678
1784098591457507800,4.7345078125,-0.0002749999985098839,0.0005499999970197678,0.0004124999977648258
1784098591467592700,4.7445927734375,-0.0002749999985098839,0.0005499999970197678,-0.0016499999910593033
1784098591477677600,4.754677490234375,-0.0002749999985098839,0.0005499999970197678,-0.0005499999970197678
1784098591487762400,4.764762451171875,-0.0013749999925494194,0.0005499999970197678,-0.0005499999970197678
1784098591497847300,4.774847412109375,-0.0002749999985098839,0.0005499999970197678,-0.0005499999970197678
1784098591507932000,4.784931884765625,-0.0002749999985098839,0.0005499999970197678,0.0004124999977648258
1784098591518016800,4.795016845703125,-0.0002749999985098839,0.0016499999910593033,-0.0005499999970197678
1784098591528101600,4.8051015625,-0.0002749999985098839,0.0005499999970197678,-0.0005499999970197678
1784098591538186500,4.8151865234375,-0.0002749999985098839,0.0016499999910593033,0.0004124999977648258
1784098591548271400,4.825271240234375,-0.0002749999985098839,0.0005499999970197678,-0.0005499999970197678
1784098591558356200,4.835356201171875,-0.0013749999925494194,0.0005499999970197678,-0.0005499999970197678
1784098591568440800,4.84544091796875,-0.0013749999925494194,0.0005499999970197678,-0.0005499999970197678
1784098591578525700,4.855525634765625,0.0006874999962747097,0.0005499999970197678,-0.0005499999970197678
1784098591588610600,4.865610595703125,0.0006874999962747097,0.0005499999970197678,0.0004124999977648258
1784098591598695400,4.8756953125,0.0006874999962747097,-0.0005499999970197678,-0.0005499999970197678
1784098591608780300,4.8857802734375,0.0006874999962747097,-0.0005499999970197678,0.0015124999918043613
1784098591618865200,4.895865234375,0.0006874999962747097,-0.0005499999970197678,0.0004124999977648258
1784098591628950000,4.905949951171875,0.0006874999962747097,-0.0015124999918043613,0.0004124999977648258
1784098591639035000,4.916034912109375,0.0006874999962747097,-0.0015124999918043613,0.0004124999977648258
1784098591649119700,4.92611962890625,0.0006874999962747097,-0.0015124999918043613,0.0015124999918043613
1784098591659204600,4.93620458984375,0.0006874999962747097,-0.0005499999970197678,-0.0005499999970197678
1784098591669289500,4.94628955078125,-0.0002749999985098839,-0.0005499999970197678,0.0015124999918043613
1784098591679374300,4.956374267578125,0.0006874999962747097,-0.0005499999970197678,-0.0005499999970197678
1784098591689459000,4.966458984375,-0.0002749999985098839,-0.0005499999970197678,0.0015124999918043613
1784098591699543800,4.976543701171875,-0.0002749999985098839,0.0005499999970197678,-0.0005499999970197678
1784098591709628700,4.986628662109375,-0.0002749999985098839,-0.0005499999970197678,0.0004124999977648258
1784098591719713500,4.996713623046875,-0.0002749999985098839,0.0005499999970197678,-0.0005499999970197678
1784098591729798400,5.00679833984375,-0.0002749999985098839,0.0005499999970197678,0.0004124999977648258
1784098591739883300,5.01688330078125,-0.0002749999985098839,0.0005499999970197678,0.0004124999977648258
1784098591749968100,5.026968017578125,0.0006874999962747097,0.0005499999970197678,-0.0005499999970197678
1784098591760053000,5.037052978515625,-0.0002749999985098839,-0.0005499999970197678,-0.0005499999970197678
1784098591770137600,5.0471376953125,-0.0013749999925494194,0.0005499999970197678,-0.0005499999970197678
1784098591780222500,5.057222412109375,-0.0002749999985098839,0.0005499999970197678,-0.0005499999970197678
1784098591790307300,5.067307373046875,-0.0002749999985098839,0.0005499999970197678,0.0004124999977648258
1784098591800392200,5.07739208984375,-0.0002749999985098839,0.0005499999970197678,0.0004124999977648258
1784098591810477000,5.08747705078125,-0.0002749999985098839,0.0016499999910593033,-0.0005499999970197678
1784098591820562000,5.09756201171875,-0.0002749999985098839,0.0005499999970197678,0.0004124999977648258
1784098591830646800,5.107646728515625,-0.0013749999925494194,0.0005499999970197678,-0.0005499999970197678
1784098591840731600,5.117731689453125,-0.0002749999985098839,0.0005499999970197678,0.0015124999918043613
1784098591850816300,5.127816162109375,-0.0002749999985098839,0.0005499999970197678,-0.0005499999970197678
1784098591860901000,5.137901123046875,-0.0002749999985098839,-0.0005499999970197678,-0.0005499999970197678
1784098591870986000,5.147986083984375,-0.0002749999985098839,0.0005499999970197678,0.0004124999977648258
1784098591881070800,5.15807080078125,-0.0002749999985098839,0.0005499999970197678,0.0004124999977648258
1784098591891155700,5.16815576171875,-0.0002749999985098839,-0.0005499999970197678,-0.0005499999970197678
1784098591901240600,5.178240478515625,0.0006874999962747097,-0.0005499999970197678,0.0015124999918043613
1784098591911325400,5.188325439453125,-0.0002749999985098839,-0.0005499999970197678,0.0004124999977648258
1784098591921410300,5.198410400390625,0.0006874999962747097,-0.0005499999970197678,-0.0005499999970197678
1784098591931495200,5.2084951171875,0.0006874999962747097,-0.0005499999970197678,0.0004124999977648258
1784098591941580000,5.218580078125,0.0017874999903142452,-0.0005499999970197678,-0.0005499999970197678
1784098591951665000,5.228664794921875,-0.0002749999985098839,-0.0005499999970197678,0.0004124999977648258
1784098591961749500,5.23874951171875,0.0017874999903142452,-0.0015124999918043613,-0.0005499999970197678
1784098591971834400,5.24883447265625,-0.0002749999985098839,-0.0005499999970197678,0.0004124999977648258
1784098591981919200,5.258919189453125,0.0006874999962747097,-0.0015124999918043613,-0.0005499999970197678
1784098591992004000,5.269004150390625,-0.0002749999985098839,-0.0005499999970197678,0.0004124999977648258
1784098592002089000,5.2790888671875,-0.0002749999985098839,-0.0005499999970197678,-0.0005499999970197678
1784098592012173800,5.289173828125,0.0006874999962747097,-0.0005499999970197678,0.0004124999977648258
1784098592022258400,5.299258544921875,0.0006874999962747097,-0.0005499999970197678,-0.0005499999970197678
1784098592032343600,5.309343505859375,-0.0002749999985098839,0.0005499999970197678,-0.0005499999970197678
1784098592042428200,5.31942822265625,-0.0002749999985098839,-0.0005499999970197678,0.0004124999977648258
1784098592052513000,5.329512939453125,-0.0002749999985098839,0.0005499999970197678,-0.0005499999970197678
1784098592062598000,5.339597900390625,0.0006874999962747097,0.0005499999970197678,0.0004124999977648258
1784098592072682800,5.349682861328125,0.0006874999962747097,-0.0005499999970197678,0.0004124999977648258
1784098592082767600,5.359767578125,-0.0013749999925494194,0.0005499999970197678,-0.0005499999970197678
1784098592092852700,5.369852783203125,-0.0002749999985098839,0.0005499999970197678,0.0004124999977648258
1784098592102937600,5.3799375,-0.0002749999985098839,0.0005499999970197678,-0.0005499999970197678
1784098592113022200,5.390022216796875,-0.0002749999985098839,0.0005499999970197678,-0.0005499999970197678
1784098592123107000,5.400107177734375,-0.0002749999985098839,0.0005499999970197678,-0.0005499999970197678
1784098592133192000,5.41019189453125,-0.0002749999985098839,0.0016499999910593033,-0.0005499999970197678
1784098592143276800,5.42027685546875,-0.0002749999985098839,0.0016499999910593033,0.0004124999977648258
1784098592153361700,5.430361572265625,-0.0002749999985098839,-0.0005499999970197678,-0.0005499999970197678
1784098592163446500,5.440446533203125,-0.0002749999985098839,0.0005499999970197678,0.0015124999918043613
1784098592173531400,5.450531494140625,0.0006874999962747097,0.0005499999970197678,0.0004124999977648258
1784098592183616300,5.4606162109375,-0.0002749999985098839,0.0016499999910593033,0.0004124999977648258
1784098592193701000,5.470701171875,-0.0002749999985098839,0.0005499999970197678,0.0004124999977648258
1784098592203786000,5.480785888671875,-0.0002749999985098839,0.0005499999970197678,0.0004124999977648258
1784098592213870800,5.490870849609375,-0.0002749999985098839,0.0005499999970197678,0.0004124999977648258
1784098592223955700,5.500955810546875,-0.0002749999985098839,0.0005499999970197678,0.0015124999918043613
1784098592234040600,5.51104052734375,-0.0002749999985098839,-0.0015124999918043613,0.0004124999977648258
1784098592244125400,5.52112548828125,-0.0002749999985098839,-0.0005499999970197678,0.0015124999918043613
1784098592254210300,5.531210205078125,-0.0002749999985098839,-0.0005499999970197678,0.0004124999977648258
1784098592264295200,5.541295166015625,-0.0002749999985098839,-0.0005499999970197678,0.0004124999977648258
1784098592274380000,5.551380126953125,-0.0002749999985098839,-0.0005499999970197678,0.0015124999918043613
1784098592284465000,5.56146484375,-0.0002749999985098839,-0.0015124999918043613,-0.0005499999970197678
1784098592294549800,5.5715498046875,0.0017874999903142452,-0.0005499999970197678,0.0004124999977648258
1784098592304634600,5.581634521484375,0.0006874999962747097,-0.0015124999918043613,0.0004124999977648258
1784098592314719500,5.591719482421875,0.0006874999962747097,0.0005499999970197678,0.0004124999977648258
1784098592324804400,5.601804443359375,-0.0002749999985098839,-0.0005499999970197678,-0.0005499999970197678
1784098592334889000,5.611888916015625,0.0006874999962747097,-0.0005499999970197678,0.0004124999977648258
1784098592344973800,5.621973876953125,-0.0002749999985098839,-0.0015124999918043613,0.0004124999977648258
1784098592355058700,5.63205859375,0.0006874999962747097,-0.0005499999970197678,-0.0016499999910593033
1784098592365143600,5.6421435546875,0.0006874999962747097,0.0005499999970197678,-0.0016499999910593033
1784098592375228400,5.652228515625,-0.0002749999985098839,0.0005499999970197678,-0.0005499999970197678
1784098592385313300,5.662313232421875,0.0006874999962747097,0.0005499999970197678,-0.0005499999970197678
1784098592395398100,5.672398193359375,-0.0002749999985098839,-0.0005499999970197678,-0.0005499999970197678
1784098592405483000,5.68248291015625,-0.0002749999985098839,0.0005499999970197678,0.0004124999977648258
1784098592415568000,5.69256787109375,-0.0002749999985098839,0.0005499999970197678,-0.0005499999970197678
1784098592425652700,5.70265283203125,-0.0002749999985098839,0.0005499999970197678,-0.0005499999970197678
1784098592435737600,5.712737548828125,-0.0002749999985098839,0.0005499999970197678,0.0004124999977648258
1784098592445822500,5.722822509765625,-0.0002749999985098839,0.0005499999970197678,0.0015124999918043613
1784098592455907300,5.7329072265625,-0.0002749999985098839,0.0005499999970197678,-0.0005499999970197678
1784098592465992200,5.7429921875,-0.0002749999985098839,0.0005499999970197678,-0.0005499999970197678
1784098592476077000,5.7530771484375,-0.0002749999985098839,0.0005499999970197678,0.0004124999977648258
1784098592486162000,5.763161865234375,-0.0002749999985098839,0.0005499999970197678,0.0004124999977648258
1784098592496246800,5.773246826171875,-0.0013749999925494194,0.0005499999970197678,0.0004124999977648258
1784098592506331600,5.78333154296875,-0.0013749999925494194,0.0005499999970197678,-0.0005499999970197678
1784098592516416300,5.793416259765625,-0.0002749999985098839,0.0005499999970197678,0.0004124999977648258
1784098592526501000,5.803501220703125,-0.0002749999985098839,0.0005499999970197678,-0.0005499999970197678
1784098592536586200,5.813586181640625,-0.0002749999985098839,0.0005499999970197678,-0.0005499999970197678
1784098592546671000,5.823671142578125,0.0006874999962747097,0.0005499999970197678,0.0004124999977648258
1784098592556756000,5.833755859375,-0.0002749999985098839,-0.0005499999970197678,0.0004124999977648258
1784098592566840800,5.8438408203125,-0.0002749999985098839,-0.0005499999970197678,0.0004124999977648258
1784098592576925700,5.85392578125,-0.0002749999985098839,-0.0005499999970197678,-0.0005499999970197678
1784098592587010600,5.864010498046875,0.0006874999962747097,-0.0015124999918043613,-0.0005499999970197678
1784098592597095400,5.874095458984375,0.0006874999962747097,-0.0005499999970197678,-0.0005499999970197678
1784098592607180300,5.88418017578125,0.0006874999962747097,-0.0005499999970197678,0.0004124999977648258
1784098592617265200,5.89426513671875,-0.0002749999985098839,0.0005499999970197678,-0.0005499999970197678
1784098592627350000,5.90435009765625,-0.0002749999985098839,-0.0005499999970197678,0.0004124999977648258
1784098592637435000,5.914434814453125,-0.0002749999985098839,-0.0005499999970197678,-0.0005499999970197678
1784098592647519700,5.924519775390625,-0.0013749999925494194,0.0005499999970197678,-0.0005499999970197678
1784098592657604600,5.9346044921875,0.0006874999962747097,-0.0005499999970197678,-0.0005499999970197678
1784098592667689500,5.944689453125,-0.0002749999985098839,-0.0005499999970197678,0.0004124999977648258
1784098592677774000,5.954774169921875,0.0006874999962747097,0.0005499999970197678,-0.0005499999970197678
1784098592687859200,5.964859130859375,-0.0002749999985098839,-0.0005499999970197678,-0.0016499999910593033
1784098592697944000,5.974944091796875,0.0006874999962747097,-0.0005499999970197678,-0.0005499999970197678
1784098592708029000,5.98502880859375,-0.0002749999985098839,-0.0005499999970197678,-0.0005499999970197678
1784098592718113800,5.99511376953125,-0.0002749999985098839,0.0005499999970197678,-0.0005499999970197678
1784098592728198700,6.00519873046875,-0.0002749999985098839,-0.0005499999970197678,-0.0005499999970197678
1784098592738283500,6.015283447265625,-0.0013749999925494194,-0.0005499999970197678,0.0004124999977648258
1784098592748368400,6.025368408203125,-0.0002749999985098839,0.0005499999970197678,-0.0005499999970197678
1784098592758453200,6.035453369140625,-0.0002749999985098839,0.0005499999970197678,0.0015124999918043613
1784098592768538000,6.0455380859375,-0.0002749999985098839,-0.0005499999970197678,0.0004124999977648258
1784098592778623000,6.055623046875,-0.0002749999985098839,0.0004124999977648258,0.0004124999977648258
1784098592788707800,6.065707763671875,-0.0002749999985098839,0.0004124999977648258,0.0004124999977648258
1784098592798792700,6.075792724609375,-0.0002749999985098839,0.0004124999977648258,0.0004124999977648258
1784098592808877600,6.085877685546875,-0.0002749999985098839,0.0004124999977648258,-0.0005499999970197678
1784098592818962400,6.09596240234375,-0.0002749999985098839,0.0004124999977648258,0.0004124999977648258
1784098592829047300,6.10604736328125,-0.0002749999985098839,0.0004124999977648258,-0.0005499999970197678
1784098592839132200,6.116132080078125,-0.0002749999985098839,0.0004124999977648258,0.0004124999977648258
1784098592849217000,6.126217041015625,0.0008249999955296516,0.0004124999977648258,0.0015124999918043613
1784098592859302000,6.136302001953125,-0.0002749999985098839,0.0004124999977648258,0.0004124999977648258
1784098592869386800,6.14638671875,0.0008249999955296516,-0.0005499999970197678,0.0004124999977648258
1784098592879471600,6.1564716796875,0.0008249999955296516,-0.0005499999970197678,0.0004124999977648258
1784098592889556500,6.166556396484375,-0.0002749999985098839,-0.0005499999970197678,0.0004124999977648258
1784098592899641300,6.176641357421875,-0.0002749999985098839,-0.0005499999970197678,0.0004124999977648258
1784098592909726200,6.186726318359375,0.0008249999955296516,-0.0005499999970197678,-0.0005499999970197678
1784098592919811000,6.19681103515625,-0.0002749999985098839,-0.0005499999970197678,0.0004124999977648258
1784098592929896000,6.20689599609375,0.0008249999955296516,-0.0005499999970197678,0.0004124999977648258
1784098592939980800,6.216980712890625,0.0008249999955296516,-0.0005499999970197678,-0.0005499999970197678
1784098592950065700,6.227065673828125,-0.0002749999985098839,-0.0005499999970197678,0.0004124999977648258
1784098592960150500,6.237150634765625,-0.0002749999985098839,-0.0005499999970197678,-0.0005499999970197678
1784098592970235400,6.2472353515625,-0.0002749999985098839,-0.0005499999970197678,-0.0005499999970197678
1784098592980320300,6.2573203125,0.0008249999955296516,-0.0005499999970197678,-0.0005499999970197678
1784098592990405000,6.267405029296875,-0.0002749999985098839,-0.0005499999970197678,0.0004124999977648258
1784098593000490000,6.277489990234375,-0.0002749999985098839,-0.0005499999970197678,-0.0005499999970197678
1784098593010574800,6.287574951171875,-0.0002749999985098839,-0.0005499999970197678,0.0004124999977648258
1784098593020660000,6.297659912109375,-0.0002749999985098839,0.0004124999977648258,-0.0005499999970197678
1784098593030744800,6.307744873046875,-0.0002749999985098839,-0.0005499999970197678,-0.0005499999970197678
1784098593040829700,6.31782958984375,-0.0002749999985098839,-0.0005499999970197678,0.0004124999977648258
1784098593050914300,6.327914306640625,-0.0002749999985098839,0.0004124999977648258,-0.0005499999970197678
1784098593060999400,6.33799951171875,-0.0002749999985098839,0.0004124999977648258,0.0004124999977648258
1784098593071084000,6.348083984375,-0.0002749999985098839,0.0004124999977648258,-0.0005499999970197678
1784098593081169200,6.358169189453125,-0.0002749999985098839,-0.0005499999970197678,-0.0005499999970197678
1784098593091254000,6.36825390625,-0.0002749999985098839,0.0004124999977648258,0.0004124999977648258
1784098593101339000,6.3783388671875,0.0008249999955296516,0.0004124999977648258,0.0004124999977648258
1784098593111423700,6.388423828125,-0.0002749999985098839,0.0004124999977648258,0.0004124999977648258
1784098593121508600,6.398508544921875,-0.0002749999985098839,0.0004124999977648258,0.0004124999977648258
1784098593131593500,6.408593505859375,-0.0002749999985098839,0.0004124999977648258,0.0004124999977648258
1784098593141678300,6.41867822265625,-0.0002749999985098839,0.0004124999977648258,0.0004124999977648258
1784098593151763200,6.42876318359375,-0.0002749999985098839,0.0004124999977648258,0.0004124999977648258
1784098593161848000,6.43884814453125,-0.0002749999985098839,-0.0005499999970197678,0.0004124999977648258
1784098593171933000,6.448932861328125,0.0008249999955296516,-0.0005499999970197678,-0.0005499999970197678
1784098593182017500,6.459017578125,-0.0002749999985098839,-0.0005499999970197678,-0.0005499999970197678
1784098593192102700,6.4691025390625,0.0008249999955296516,-0.0005499999970197678,0.0004124999977648258
1784098593202187500,6.4791875,0.0008249999955296516,0.0004124999977648258,0.0004124999977648258
1784098593212272400,6.4892724609375,-0.0002749999985098839,-0.0005499999970197678,0.0004124999977648258
1784098593222357200,6.499357177734375,0.0008249999955296516,-0.0005499999970197678,0.0004124999977648258
1784098593232442000,6.509442138671875,-0.0002749999985098839,-0.0005499999970197678,-0.0005499999970197678
1784098593242527000,6.51952685546875,-0.0002749999985098839,-0.0005499999970197678,-0.0005499999970197678
1784098593252611800,6.52961181640625,-0.0002749999985098839,-0.0005499999970197678,0.0004124999977648258
1784098593262696700,6.53969677734375,-0.0002749999985098839,-0.0005499999970197678,-0.0005499999970197678
1784098593272781600,6.549781494140625,0.0008249999955296516,0.0004124999977648258,0.0004124999977648258
1784098593282866200,6.5598662109375,0.0008249999955296516,-0.0005499999970197678,-0.0005499999970197678
1784098593292951300,6.569951416015625,0.0008249999955296516,-0.0005499999970197678,-0.0005499999970197678
1784098593303036000,6.580035888671875,-0.0002749999985098839,-0.0005499999970197678,-0.0005499999970197678
1784098593313120800,6.590120849609375,-0.0002749999985098839,-0.0005499999970197678,-0.0005499999970197678
1784098593323205600,6.60020556640625,0.0008249999955296516,-0.0005499999970197678,-0.0005499999970197678
1784098593333290500,6.61029052734375,-0.0002749999985098839,-0.0005499999970197678,0.0004124999977648258
1784098593343375600,6.620375732421875,0.0008249999955296516,-0.0005499999970197678,0.0004124999977648258
1784098593353460500,6.63046044921875,-0.0013749999925494194,0.0004124999977648258,0.0004124999977648258
1784098593363545000,6.640545166015625,-0.0002749999985098839,0.0004124999977648258,0.0004124999977648258
1784098593373630200,6.650630126953125,-0.0002749999985098839,0.0004124999977648258,0.0004124999977648258
1784098593383715000,6.660715087890625,-0.0002749999985098839,-0.0005499999970197678,-0.0005499999970197678
1784098593393800000,6.670800048828125,-0.0013749999925494194,0.0004124999977648258,0.0004124999977648258
1784098593403884800,6.680884765625,-0.0002749999985098839,0.0004124999977648258,0.0004124999977648258
1784098593413969700,6.6909697265625,-0.0002749999985098839,0.0004124999977648258,0.0004124999977648258
1784098593424054500,6.701054443359375,-0.0002749999985098839,0.0004124999977648258,0.0004124999977648258
1784098593434139400,6.711139404296875,-0.0002749999985098839,-0.0005499999970197678,0.0004124999977648258
1784098593444224300,6.721224365234375,-0.0002749999985098839,0.0004124999977648258,0.0004124999977648258
1784098593454309000,6.73130908203125,-0.0002749999985098839,0.0004124999977648258,0.0004124999977648258
1784098593464394000,6.74139404296875,-0.0002749999985098839,-0.0005499999970197678,0.0004124999977648258
1784098593474478800,6.751478759765625,-0.0002749999985098839,-0.0005499999970197678,-0.0005499999970197678
1784098593484563700,6.761563720703125,-0.0002749999985098839,-0.0005499999970197678,-0.0005499999970197678
1784098593494648600,6.771648681640625,-0.0002749999985098839,0.0004124999977648258,0.0004124999977648258
1784098593504733400,6.7817333984375,-0.0013749999925494194,0.0015124999918043613,-0.0005499999970197678
1784098593514818300,6.791818359375,-0.0002749999985098839,-0.0005499999970197678,-0.002749999985098839
1784098593524903200,6.801903076171875,-0.0002749999985098839,0.0004124999977648258,0.0004124999977648258
1784098593534988000,6.811988037109375,-0.0002749999985098839,-0.0005499999970197678,-0.0016499999910593033
1784098593545073000,6.822072998046875,-0.0002749999985098839,0.0004124999977648258,-0.0005499999970197678
1784098593555157800,6.83215771484375,-0.0002749999985098839,-0.0005499999970197678,0.0004124999977648258
1784098593565242600,6.84224267578125,0.0008249999955296516,-0.0005499999970197678,-0.0005499999970197678
1784098593575327500,6.852327392578125,0.0008249999955296516,-0.0005499999970197678,-0.0005499999970197678
1784098593585412600,6.86241259765625,-0.0002749999985098839,0.0004124999977648258,-0.0005499999970197678
1784098593595497500,6.87249755859375,-0.0002749999985098839,-0.0005499999970197678,-0.0005499999970197678
1784098593605582300,6.882582275390625,-0.0002749999985098839,-0.0005499999970197678,-0.0005499999970197678
1784098593615667000,6.8926669921875,-0.0002749999985098839,-0.0005499999970197678,0.0004124999977648258
1784098593625751800,6.902751708984375,0.0008249999955296516,0.0004124999977648258,0.0004124999977648258
1784098593635837000,6.9128369140625,0.0008249999955296516,-0.0005499999970197678,0.0004124999977648258
1784098593645921800,6.922921875,0.0008249999955296516,0.0004124999977648258,0.0004124999977648258
1784098593656006700,6.933006591796875,0.0008249999955296516,-0.0005499999970197678,0.0004124999977648258
1784098593666091500,6.943091552734375,-0.0002749999985098839,-0.0005499999970197678,0.0004124999977648258
1784098593676176400,6.95317626953125,-0.0002749999985098839,-0.0016499999910593033,0.0004124999977648258
1784098593686261200,6.96326123046875,0.0008249999955296516,-0.0005499999970197678,0.0004124999977648258
1784098593696346000,6.97334619140625,-0.0002749999985098839,-0.0005499999970197678,0.0004124999977648258
1784098593706431000,6.983430908203125,0.0008249999955296516,-0.0005499999970197678,0.0015124999918043613
1784098593716515800,6.993515869140625,0.0008249999955296516,-0.0005499999970197678,0.0004124999977648258
1784098593726600700,7.0036005859375,0.0008249999955296516,-0.0016499999910593033,0.0004124999977648258
1784098593736685600,7.013685546875,0.0008249999955296516,-0.0005499999970197678,0.0015124999918043613
1784098593746770400,7.0237705078125,0.0008249999955296516,-0.0005499999970197678,0.0004124999977648258
1784098593756855300,7.033855224609375,0.0008249999955296516,-0.0016499999910593033,0.0004124999977648258
1784098593766940200,7.043940185546875,-0.0002749999985098839,-0.0005499999970197678,0.0015124999918043613
1784098593777025000,7.05402490234375,0.0008249999955296516,-0.0005499999970197678,0.0004124999977648258
1784098593787110000,7.06410986328125,0.0008249999955296516,-0.0016499999910593033,0.0015124999918043613
1784098593797194800,7.07419482421875,0.0008249999955296516,-0.0005499999970197678,0.0004124999977648258
1784098593807279600,7.084279541015625,0.0008249999955296516,-0.0005499999970197678,-0.0005499999970197678
1784098593817364500,7.094364501953125,0.0008249999955296516,-0.0005499999970197678,-0.0005499999970197678
1784098593827449300,7.104449462890625,-0.0002749999985098839,0.0004124999977648258,-0.0005499999970197678
1784098593837534200,7.1145341796875,0.0008249999955296516,-0.0005499999970197678,-0.0005499999970197678
1784098593847619000,7.124619140625,0.0008249999955296516,0.0004124999977648258,-0.0005499999970197678
1784098593857704000,7.134703857421875,0.0008249999955296516,0.0004124999977648258,-0.0005499999970197678
1784098593867788800,7.144788818359375,-0.0002749999985098839,0.0004124999977648258,-0.0005499999970197678
1784098593877873700,7.154873779296875,-0.0002749999985098839,0.0015124999918043613,-0.0005499999970197678
1784098593887958500,7.16495849609375,-0.0002749999985098839,0.0015124999918043613,-0.0005499999970197678
1784098593898043400,7.17504345703125,-0.0013749999925494194,0.0015124999918043613,-0.0016499999910593033
1784098593908128300,7.185128173828125,-0.0013749999925494194,0.0015124999918043613,-0.0016499999910593033
1784098593918213000,7.195213134765625,-0.0013749999925494194,0.0015124999918043613,0.0004124999977648258
1784098593928298000,7.205298095703125,-0.0013749999925494194,0.0015124999918043613,-0.0005499999970197678
1784098593938382800,7.2153828125,-0.0002749999985098839,0.0004124999977648258,0.0004124999977648258
1784098593948467700,7.2254677734375,-0.0013749999925494194,0.002612499985843897,0.0004124999977648258
1784098593958552600,7.235552490234375,-0.0002749999985098839,0.0015124999918043613,-0.0005499999970197678
1784098593968637400,7.245637451171875,-0.0013749999925494194,0.0004124999977648258,0.0004124999977648258
1784098593978722300,7.255722412109375,-0.0013749999925494194,0.0004124999977648258,0.0015124999918043613
1784098593988807200,7.26580712890625,-0.0002749999985098839,0.0015124999918043613,0.0004124999977648258
1784098593998892000,7.27589208984375,-0.0013749999925494194,-0.0005499999970197678,0.0004124999977648258
1784098594008977000,7.285976806640625,-0.0002749999985098839,-0.0005499999970197678,-0.0005499999970197678
1784098594019061800,7.296061767578125,-0.0002749999985098839,0.0004124999977648258,0.0015124999918043613
1784098594029146600,7.306146728515625,0.0008249999955296516,-0.0005499999970197678,0.0004124999977648258
1784098594039231700,7.316231689453125,0.0008249999955296516,-0.0005499999970197678,-0.0005499999970197678
1784098594049316600,7.326316650390625,0.0019249999895691872,-0.0005499999970197678,-0.0005499999970197678
1784098594059401500,7.3364013671875,0.0008249999955296516,-0.0016499999910593033,-0.0005499999970197678
1784098594069486300,7.346486328125,0.0008249999955296516,-0.002749999985098839,-0.0005499999970197678
1784098594079571200,7.3565712890625,0.0019249999895691872,-0.002749999985098839,-0.0005499999970197678
1784098594089656000,7.366656005859375,0.0019249999895691872,-0.0016499999910593033,-0.0016499999910593033
1784098594099741000,7.376740966796875,0.0019249999895691872,-0.002749999985098839,-0.0005499999970197678
1784098594109825800,7.38682568359375,0.0019249999895691872,-0.002749999985098839,-0.0016499999910593033
1784098594119910700,7.39691064453125,0.0019249999895691872,-0.002749999985098839,-0.0005499999970197678
1784098594129995500,7.40699560546875,0.0008249999955296516,-0.002749999985098839,-0.0016499999910593033
1784098594140080400,7.417080322265625,0.0019249999895691872,-0.0016499999910593033,-0.0005499999970197678
1784098594150165200,7.427165283203125,0.0028874999843537807,-0.0005499999970197678,-0.0005499999970197678
1784098594160250000,7.43725,0.0028874999843537807,-0.0005499999970197678,-0.0005499999970197678
1784098594170335000,7.4473349609375,0.0019249999895691872,0.0004124999977648258,-0.0005499999970197678
1784098594180419800,7.457419921875,0.0008249999955296516,-0.0005499999970197678,0.0004124999977648258
1784098594190504700,7.467504638671875,-0.0013749999925494194,-0.0038499999791383743,-0.0005499999970197678
1784098594200589600,7.477589599609375,-0.0002749999985098839,-0.0016499999910593033,-0.0005499999970197678
1784098594210674400,7.48767431640625,-0.0002749999985098839,0.002612499985843897,-0.0005499999970197678
1784098594220759300,7.49775927734375,0.0008249999955296516,0.0004124999977648258,-0.0016499999910593033
1784098594230844200,7.50784423828125,-0.0002749999985098839,0.0037124999798834324,-0.0005499999970197678
1784098594240929000,7.517928955078125,-0.0002749999985098839,0.004674999974668026,0.0004124999977648258
1784098594251014100,7.52801416015625,-0.0013749999925494194,0.0037124999798834324,0.0004124999977648258
1784098594261099000,7.53809912109375,-0.0013749999925494194,0.0037124999798834324,-0.0016499999910593033
1784098594271184000,7.548183837890625,-0.002337499987334013,0.0057749999687075615,-0.0005499999970197678
1784098594281268500,7.5582685546875,-0.002337499987334013,0.0037124999798834324,0.0004124999977648258
1784098594291353600,7.568353515625,-0.0013749999925494194,0.0037124999798834324,0.0004124999977648258
1784098594301438500,7.5784384765625,-0.0013749999925494194,0.0037124999798834324,0.0004124999977648258
1784098594311523300,7.5885234375,-0.0002749999985098839,0.0037124999798834324,-0.0005499999970197678
1784098594321608200,7.598608154296875,-0.0013749999925494194,0.0037124999798834324,0.0004124999977648258
1784098594331693000,7.608693115234375,-0.0002749999985098839,0.002612499985843897,0.0015124999918043613
1784098594341778000,7.61877783203125,-0.0013749999925494194,0.0004124999977648258,0.0004124999977648258
1784098594351862800,7.62886279296875,-0.0013749999925494194,0.0015124999918043613,-0.0005499999970197678
1784098594361947600,7.63894775390625,-0.0002749999985098839,-0.0005499999970197678,0.0004124999977648258
1784098594372032300,7.6490322265625,-0.0002749999985098839,-0.0005499999970197678,0.0004124999977648258
1784098594382117000,7.6591171875,0.0008249999955296516,0.0004124999977648258,0.0015124999918043613
1784098594392202200,7.6692021484375,0.0008249999955296516,-0.0016499999910593033,-0.0005499999970197678
1784098594402286800,7.679286865234375,-0.0002749999985098839,-0.002749999985098839,0.004674999974668026
1784098594412372000,7.6893720703125,0.0008249999955296516,-0.0005499999970197678,-0.002749999985098839
1784098594422456800,7.699456787109375,0.0008249999955296516,0.0004124999977648258,0.0015124999918043613
1784098594432541400,7.70954150390625,0.0008249999955296516,-0.004812499973922968,-0.0005499999970197678
1784098594442626600,7.71962646484375,-0.0002749999985098839,-0.0016499999910593033,-0.0005499999970197678
1784098594452711200,7.729711181640625,0.0008249999955296516,-0.002749999985098839,-0.0005499999970197678
1784098594462796300,7.73979638671875,0.0008249999955296516,-0.0038499999791383743,-0.0005499999970197678
1784098594472881200,7.749881103515625,0.0008249999955296516,-0.0038499999791383743,-0.0005499999970197678
1784098594482966000,7.759966064453125,0.0019249999895691872,-0.0016499999910593033,-0.0005499999970197678
1784098594493051000,7.77005078125,0.0008249999955296516,-0.002749999985098839,-0.0005499999970197678
1784098594503135700,7.7801357421875,0.0008249999955296516,-0.002749999985098839,-0.0016499999910593033
1784098594513220600,7.790220703125,-0.0002749999985098839,-0.0016499999910593033,0.0004124999977648258
1784098594523305500,7.800305419921875,0.0008249999955296516,-0.0005499999970197678,-0.0016499999910593033
1784098594533390300,7.810390380859375,-0.0002749999985098839,-0.0016499999910593033,-0.0005499999970197678
1784098594543475200,7.82047509765625,-0.0002749999985098839,-0.0005499999970197678,-0.0005499999970197678
1784098594553560000,7.83056005859375,-0.0002749999985098839,0.0004124999977648258,-0.0016499999910593033
1784098594563645000,7.84064501953125,-0.0002749999985098839,0.0004124999977648258,-0.0016499999910593033
1784098594573729800,7.850729736328125,-0.0002749999985098839,0.0015124999918043613,-0.0016499999910593033
1784098594583814700,7.860814697265625,-0.0013749999925494194,0.002612499985843897,-0.0016499999910593033
1784098594593899500,7.8708994140625,0.0008249999955296516,0.002612499985843897,-0.0005499999970197678
1784098594603984400,7.880984375,-0.002337499987334013,0.002612499985843897,-0.0005499999970197678
1784098594614069200,7.8910693359375,-0.0013749999925494194,0.0015124999918043613,-0.0005499999970197678
1784098594624154000,7.901154052734375,-0.0002749999985098839,0.002612499985843897,-0.0005499999970197678
1784098594634239000,7.911239013671875,-0.0013749999925494194,0.002612499985843897,0.0015124999918043613
1784098594644323800,7.92132373046875,-0.0013749999925494194,0.002612499985843897,0.0004124999977648258
1784098594654408700,7.93140869140625,-0.0013749999925494194,0.0015124999918043613,0.0004124999977648258
1784098594664493600,7.94149365234375,-0.0002749999985098839,0.002612499985843897,0.0015124999918043613
1784098594674578700,7.95157861328125,-0.0013749999925494194,0.0015124999918043613,0.002612499985843897
1784098594684663300,7.961663330078125,-0.0002749999985098839,0.0004124999977648258,0.0015124999918043613
1784098594694748200,7.971748046875,-0.0002749999985098839,-0.0005499999970197678,0.002612499985843897
1784098594704833300,7.981833251953125,-0.0002749999985098839,-0.0005499999970197678,0.0015124999918043613
1784098594714918100,7.991918212890625,0.0008249999955296516,-0.0016499999910593033,0.0015124999918043613
1784098594725002800,8.002002685546875,-0.0002749999985098839,-0.002749999985098839,0.002612499985843897
1784098594735087600,8.012087646484375,0.0019249999895691872,-0.0016499999910593033,0.0015124999918043613
1784098594745172500,8.02217236328125,0.0008249999955296516,-0.0016499999910593033,0.0015124999918043613
1784098594755257300,8.03225732421875,0.0008249999955296516,-0.002749999985098839,0.0015124999918043613
1784098594765342200,8.04234228515625,0.0008249999955296516,-0.0016499999910593033,0.0015124999918043613
1784098594775427000,8.052427001953125,0.0008249999955296516,-0.0015124999918043613,-0.0006874999962747097
1784098594785512000,8.062511962890625,0.0017874999903142452,-0.0015124999918043613,0.0004124999977648258
1784098594795596800,8.0725966796875,0.0008249999955296516,-0.002612499985843897,0.0004124999977648258
1784098594805681700,8.082681640625,0.0017874999903142452,-0.0015124999918043613,-0.0006874999962747097
1784098594815766500,8.0927666015625,0.0008249999955296516,-0.0015124999918043613,-0.0017874999903142452
1784098594825851400,8.102851318359376,-0.0002749999985098839,-0.0015124999918043613,-0.0017874999903142452
1784098594835936300,8.112936279296875,0.0008249999955296516,-0.0015124999918043613,-0.0017874999903142452
1784098594846021000,8.123021240234374,0.0008249999955296516,-0.0004124999977648258,-0.0017874999903142452
1784098594856106000,8.13310595703125,0.0008249999955296516,-0.0004124999977648258,-0.0017874999903142452
1784098594866190800,8.14319091796875,-0.0002749999985098839,-0.0004124999977648258,-0.0017874999903142452
1784098594876275700,8.153275634765626,-0.0002749999985098839,-0.0004124999977648258,-0.0017874999903142452
1784098594886360600,8.163360595703125,-0.0013749999925494194,0.0006874999962747097,-0.002749999985098839
1784098594896445400,8.173445556640624,-0.0013749999925494194,0.0006874999962747097,-0.0017874999903142452
1784098594906530600,8.183530517578125,-0.0013749999925494194,0.0016499999910593033,-0.0017874999903142452
1784098594916615400,8.193615478515625,-0.0013749999925494194,0.002749999985098839,-0.0006874999962747097
1784098594926700300,8.2037001953125,-0.0013749999925494194,0.0016499999910593033,0.0004124999977648258
1784098594936785200,8.21378515625,-0.002337499987334013,0.002749999985098839,-0.0006874999962747097
1784098594946870000,8.2238701171875,-0.002337499987334013,0.0016499999910593033,0.0004124999977648258
1784098594956955000,8.233954833984376,-0.0013749999925494194,0.0016499999910593033,0.0004124999977648258
1784098594967039700,8.244039794921875,-0.0013749999925494194,0.0016499999910593033,0.0015124999918043613
1784098594977124600,8.25412451171875,-0.0002749999985098839,0.002749999985098839,0.0004124999977648258
1784098594987209500,8.26420947265625,-0.0002749999985098839,0.0006874999962747097,0.0015124999918043613
1784098594997294300,8.27429443359375,0.0008249999955296516,0.0006874999962747097,0.002474999986588955
1784098595007379200,8.284379150390626,0.0008249999955296516,0.0006874999962747097,0.0015124999918043613
1784098595017464000,8.294464111328125,0.0008249999955296516,-0.0015124999918043613,0.0015124999918043613
1784098595027549000,8.304548828125,0.0008249999955296516,-0.0004124999977648258,0.002474999986588955
1784098595037633800,8.3146337890625,0.0008249999955296516,-0.0015124999918043613,0.002474999986588955
1784098595047718700,8.32471875,0.0008249999955296516,-0.0015124999918043613,0.0015124999918043613
1784098595057803500,8.334803466796876,0.0008249999955296516,-0.0015124999918043613,0.0015124999918043613
1784098595067888400,8.344888427734375,0.0008249999955296516,-0.002612499985843897,0.0004124999977648258
1784098595077973200,8.35497314453125,0.0008249999955296516,-0.0015124999918043613,0.0015124999918043613
1784098595088058000,8.36505810546875,0.0008249999955296516,-0.0015124999918043613,0.0004124999977648258
1784098595098142700,8.375142822265625,0.0008249999955296516,-0.002612499985843897,0.0004124999977648258
1784098595108227600,8.3852275390625,0.0008249999955296516,-0.0015124999918043613,-0.0006874999962747097
1784098595118312400,8.3953125,0.0008249999955296516,-0.0015124999918043613,-0.0006874999962747097
1784098595128397300,8.405397216796874,0.0008249999955296516,-0.0015124999918043613,-0.0017874999903142452
1784098595138482400,8.415482421875,0.0008249999955296516,-0.0004124999977648258,-0.0017874999903142452
1784098595148567000,8.425567138671875,0.0008249999955296516,-0.0004124999977648258,-0.0017874999903142452
1784098595158652000,8.43565185546875,-0.0002749999985098839,-0.0004124999977648258,-0.0017874999903142452
1784098595168736800,8.44573681640625,-0.0002749999985098839,-0.0004124999977648258,-0.0006874999962747097
1784098595178821600,8.455821533203125,-0.0002749999985098839,0.0006874999962747097,-0.0017874999903142452
1784098595188906500,8.465906494140626,-0.0002749999985098839,0.0006874999962747097,-0.0006874999962747097
1784098595198991400,8.475991455078125,-0.0002749999985098839,0.0006874999962747097,0.0004124999977648258
1784098595209076200,8.486076171875,-0.0002749999985098839,0.0006874999962747097,-0.0006874999962747097
1784098595219161000,8.4961611328125,-0.0013749999925494194,0.002749999985098839,0.0015124999918043613
1784098595229246000,8.506245849609375,-0.002337499987334013,0.002749999985098839,0.0015124999918043613
1784098595239330800,8.516330810546876,-0.0034374999813735485,0.002749999985098839,0.0004124999977648258
1784098595249415700,8.526415771484375,-0.002337499987334013,0.0038499999791383743,0.0004124999977648258
1784098595259500500,8.53650048828125,-0.0034374999813735485,0.002749999985098839,0.0004124999977648258
1784098595269585400,8.54658544921875,-0.0034374999813735485,0.0038499999791383743,0.0004124999977648258
1784098595279670300,8.556670166015625,-0.002337499987334013,0.0038499999791383743,0.0004124999977648258
1784098595289755100,8.566755126953124,-0.002337499987334013,0.002749999985098839,-0.0006874999962747097
1784098595299840000,8.576840087890625,-0.002337499987334013,0.002749999985098839,0.0004124999977648258
1784098595309924900,8.5869248046875,-0.0013749999925494194,0.002749999985098839,-0.0006874999962747097
1784098595320009700,8.597009765625,-0.0002749999985098839,-0.0004124999977648258,-0.0006874999962747097
1784098595330094600,8.607094482421875,-0.0002749999985098839,0.0006874999962747097,0.0004124999977648258
1784098595340179500,8.617179443359374,0.0008249999955296516,-0.0004124999977648258,-0.0006874999962747097
1784098595350264300,8.627264404296875,0.0017874999903142452,-0.0004124999977648258,-0.0006874999962747097
1784098595360349200,8.63734912109375,0.0017874999903142452,-0.0015124999918043613,0.0004124999977648258
1784098595370434000,8.64743408203125,0.0017874999903142452,-0.002612499985843897,0.0004124999977648258
1784098595380519000,8.657518798828125,0.0017874999903142452,-0.002612499985843897,0.0004124999977648258
1784098595390603800,8.667603759765624,0.0017874999903142452,-0.0035749999806284904,0.0004124999977648258
1784098595400688600,8.677688720703125,0.0017874999903142452,-0.002612499985843897,0.0015124999918043613
1784098595410773500,8.6877734375,0.0028874999843537807,-0.002612499985843897,0.0004124999977648258
1784098595420858400,8.6978583984375,0.0028874999843537807,-0.0035749999806284904,0.0004124999977648258
1784098595430943200,8.707943115234375,0.0028874999843537807,-0.0035749999806284904,0.0015124999918043613
1784098595441028000,8.718028076171874,0.0017874999903142452,-0.0035749999806284904,0.0015124999918043613
1784098595451113000,8.728113037109376,0.0028874999843537807,-0.0035749999806284904,0.0015124999918043613
1784098595461197800,8.73819775390625,0.0017874999903142452,-0.002612499985843897,0.002474999986588955
1784098595471282700,8.74828271484375,0.0017874999903142452,-0.0035749999806284904,0.0015124999918043613
1784098595481367600,8.758367431640625,0.0008249999955296516,-0.002612499985843897,0.0015124999918043613
1784098595491452400,8.768452392578125,-0.0002749999985098839,-0.0015124999918043613,0.0015124999918043613
1784098595501537300,8.778537353515626,-0.0002749999985098839,-0.0004124999977648258,0.0004124999977648258
1784098595511622100,8.7886220703125,-0.0002749999985098839,0.0006874999962747097,0.0004124999977648258
1784098595521707000,8.79870703125,-0.0002749999985098839,0.0016499999910593033,-0.0006874999962747097
1784098595531792000,8.8087919921875,-0.0013749999925494194,0.002749999985098839,-0.0006874999962747097
1784098595541876700,8.818876708984375,-0.002337499987334013,0.0038499999791383743,-0.0006874999962747097
1784098595551961600,8.828961669921876,-0.002337499987334013,0.00494999997317791,-0.0017874999903142452
1784098595562046500,8.83904638671875,-0.002337499987334013,0.00494999997317791,-0.0017874999903142452
1784098595572131300,8.84913134765625,-0.002337499987334013,0.00494999997317791,-0.0017874999903142452
1784098595582216000,8.8592158203125,-0.0034374999813735485,0.00494999997317791,-0.0017874999903142452
1784098595592300800,8.86930078125,-0.0034374999813735485,0.00494999997317791,-0.0017874999903142452
1784098595602386000,8.879385986328124,-0.0034374999813735485,0.00494999997317791,-0.0006874999962747097
1784098595612470800,8.889470703125,-0.002337499987334013,0.0038499999791383743,-0.0017874999903142452
1784098595622555400,8.899555419921874,-0.0034374999813735485,0.0038499999791383743,-0.0006874999962747097
1784098595632640500,8.909640625,-0.002337499987334013,0.0038499999791383743,-0.0017874999903142452
1784098595642725400,8.919725341796875,-0.002337499987334013,0.0016499999910593033,-0.0017874999903142452
1784098595652810000,8.92981005859375,-0.0013749999925494194,0.0006874999962747097,-0.0017874999903142452
1784098595662894800,8.939894775390625,-0.0013749999925494194,-0.0004124999977648258,-0.0006874999962747097
1784098595672980000,8.94997998046875,0.0008249999955296516,-0.0004124999977648258,-0.0006874999962747097
1784098595683064600,8.960064697265626,-0.0002749999985098839,-0.0015124999918043613,0.0004124999977648258
1784098595693149400,8.9701494140625,0.0008249999955296516,-0.002612499985843897,0.0004124999977648258
1784098595703234300,8.980234375,0.0017874999903142452,-0.002612499985843897,0.0015124999918043613
1784098595713319200,8.990319091796875,0.0028874999843537807,-0.0035749999806284904,0.0015124999918043613
1784098595723404000,9.000404052734375,0.0028874999843537807,-0.0035749999806284904,0.0015124999918043613
1784098595733489000,9.010489013671876,0.0028874999843537807,-0.004674999974668026,0.0015124999918043613
1784098595743573800,9.02057373046875,0.0028874999843537807,-0.004674999974668026,0.002474999986588955
1784098595753658600,9.03065869140625,0.0028874999843537807,-0.0035749999806284904,0.0015124999918043613
1784098595763743500,9.040743408203125,0.0028874999843537807,-0.0035749999806284904,0.0015124999918043613
1784098595773828400,9.050828369140625,0.0028874999843537807,-0.0035749999806284904,0.0015124999918043613
1784098595783913200,9.060913330078124,0.003987499978393316,-0.002612499985843897,0.0015124999918043613
1784098595793998000,9.070998046875,0.0028874999843537807,-0.002612499985843897,0.0004124999977648258
1784098595804083000,9.0810830078125,0.0028874999843537807,-0.0004124999977648258,0.0004124999977648258
1784098595814167800,9.091167724609376,0.0017874999903142452,-0.0004124999977648258,-0.0017874999903142452
1784098595824252700,9.101252685546875,0.0008249999955296516,-0.0015124999918043613,0.0015124999918043613
1784098595834337500,9.111337646484374,-0.0013749999925494194,-0.0015124999918043613,-0.0006874999962747097
1784098595844422400,9.12142236328125,-0.0013749999925494194,-0.0004124999977648258,0.0004124999977648258
1784098595854507300,9.13150732421875,-0.0013749999925494194,0.0006874999962747097,-0.0006874999962747097
1784098595864592100,9.141592041015626,-0.0034374999813735485,0.0016499999910593033,-0.0006874999962747097
1784098595874676700,9.1516767578125,-0.002337499987334013,0.0038499999791383743,-0.0017874999903142452
1784098595884761900,9.161761962890624,-0.002337499987334013,0.0038499999791383743,-0.0006874999962747097
1784098595894846500,9.171846435546875,-0.0034374999813735485,0.00494999997317791,-0.0017874999903142452
1784098595904931300,9.181931396484375,-0.0034374999813735485,0.0038499999791383743,-0.0006874999962747097
1784098595915016200,9.19201611328125,-0.002337499987334013,0.0038499999791383743,-0.0006874999962747097
1784098595925101000,9.20210107421875,-0.002337499987334013,0.00494999997317791,-0.0017874999903142452
1784098595935186000,9.21218603515625,-0.002337499987334013,0.0038499999791383743,-0.0017874999903142452
1784098595945270800,9.222270751953126,-0.002337499987334013,0.002749999985098839,-0.0006874999962747097
1784098595955355600,9.232355712890625,-0.0013749999925494194,0.002749999985098839,-0.0006874999962747097
1784098595965440500,9.2424404296875,-0.0013749999925494194,0.0016499999910593033,-0.0006874999962747097
1784098595975525600,9.252525634765625,-0.0013749999925494194,0.0016499999910593033,-0.0006874999962747097
1784098595985610500,9.262610595703125,-0.0002749999985098839,0.002749999985098839,-0.0006874999962747097
1784098595995695400,9.2726953125,-0.0002749999985098839,-0.0004124999977648258,0.0004124999977648258
1784098596005780000,9.282780029296875,0.0008249999955296516,-0.0004124999977648258,0.0004124999977648258
1784098596015865000,9.292864990234374,0.0008249999955296516,-0.0004124999977648258,0.0015124999918043613
1784098596025949700,9.30294970703125,0.0008249999955296516,-0.0015124999918043613,0.0015124999918043613
1784098596036034600,9.31303466796875,0.0017874999903142452,-0.002612499985843897,0.0015124999918043613
1784098596046119400,9.323119384765626,0.0008249999955296516,-0.002612499985843897,0.0015124999918043613
1784098596056204300,9.333204345703125,0.0017874999903142452,-0.002612499985843897,0.0015124999918043613
1784098596066289200,9.3432890625,0.0017874999903142452,-0.002612499985843897,0.0015124999918043613
1784098596076374000,9.3533740234375,0.0008249999955296516,-0.002612499985843897,0.002474999986588955
1784098596086459000,9.363458984375,0.0017874999903142452,-0.0035749999806284904,0.0015124999918043613
1784098596096543700,9.373543701171876,0.0017874999903142452,-0.0035749999806284904,0.0004124999977648258
1784098596106628600,9.383628662109375,0.0017874999903142452,-0.002612499985843897,0.0015124999918043613
1784098596116713500,9.39371337890625,0.0008249999955296516,-0.002612499985843897,0.0004124999977648258
1784098596126798300,9.40379833984375,-0.0002749999985098839,-0.002612499985843897,0.0015124999918043613
1784098596136883200,9.41388330078125,0.0008249999955296516,-0.0015124999918043613,0.0004124999977648258
1784098596146968000,9.423968017578124,0.0008249999955296516,-0.0004124999977648258,0.0015124999918043613
1784098596157053000,9.434052978515625,-0.0002749999985098839,-0.0015124999918043613,0.0004124999977648258
1784098596167137800,9.4441376953125,-0.0002749999985098839,0.0006874999962747097,0.0004124999977648258
1784098596177222700,9.45422265625,-0.0002749999985098839,0.0016499999910593033,0.0004124999977648258
1784098596187307500,9.4643076171875,-0.0013749999925494194,0.002749999985098839,-0.0006874999962747097
1784098596197392400,9.474392333984374,-0.0002749999985098839,0.002749999985098839,-0.0006874999962747097
1784098596207477200,9.484477294921875,-0.0013749999925494194,0.002749999985098839,-0.0006874999962747097
1784098596217561900,9.494561767578125,-0.002337499987334013,0.002749999985098839,-0.0006874999962747097
1784098596227646700,9.504646728515626,-0.002337499987334013,0.0016499999910593033,-0.0006874999962747097
1784098596237731800,9.51473193359375,-0.002337499987334013,0.0038499999791383743,-0.0006874999962747097
1784098596247816400,9.52481640625,-0.0013749999925494194,0.002749999985098839,-0.0006874999962747097
1784098596257901300,9.5349013671875,-0.002337499987334013,0.002749999985098839,0.0004124999977648258
1784098596267986200,9.544986083984375,-0.002337499987334013,0.002749999985098839,-0.0006874999962747097
1784098596278071000,9.555071044921876,-0.002337499987334013,0.0038499999791383743,0.0004124999977648258
1784098596288156000,9.565156005859375,-0.0034374999813735485,0.0038499999791383743,0.0015124999918043613
1784098596298240800,9.57524072265625,-0.002337499987334013,0.0016499999910593033,0.0004124999977648258
1784098596308325600,9.58532568359375,-0.002337499987334013,0.0016499999910593033,0.0015124999918043613
1784098596318410500,9.595410400390625,-0.0013749999925494194,0.002749999985098839,0.0004124999977648258
1784098596328495400,9.605495361328124,-0.0013749999925494194,0.0006874999962747097,0.0015124999918043613
1784098596338580200,9.615580322265625,-0.0013749999925494194,-0.0004124999977648258,0.0015124999918043613
1784098596348665000,9.6256650390625,0.0008249999955296516,-0.0004124999977648258,0.0015124999918043613
1784098596358750000,9.63575,0.0008249999955296516,-0.0015124999918043613,0.0015124999918043613
1784098596368834800,9.645834716796875,0.0008249999955296516,-0.0015124999918043613,0.0004124999977648258
1784098596378919400,9.65591943359375,0.0008249999955296516,-0.0015124999918043613,0.0004124999977648258
1784098596389004500,9.666004638671875,0.0017874999903142452,-0.0015124999918043613,0.0015124999918043613
1784098596399089200,9.676089111328125,0.0017874999903142452,-0.002612499985843897,0.0004124999977648258
1784098596409174000,9.686174072265626,0.0008249999955296516,-0.002612499985843897,0.0004124999977648258
1784098596419259000,9.6962587890625,0.0008249999955296516,-0.0035749999806284904,-0.0006874999962747097
1784098596429343700,9.70634375,0.0017874999903142452,-0.0035749999806284904,-0.0006874999962747097
1784098596439428600,9.7164287109375,0.0008249999955296516,-0.002612499985843897,-0.0017874999903142452
1784098596449513500,9.726513427734375,0.0008249999955296516,-0.002612499985843897,-0.0017874999903142452
1784098596459598300,9.736598388671876,0.0008249999955296516,-0.002612499985843897,-0.0006874999962747097
1784098596469683200,9.74668310546875,0.0008249999955296516,-0.0015124999918043613,-0.0017874999903142452
1784098596479768000,9.75676806640625,0.0017874999903142452,-0.002612499985843897,-0.0017874999903142452
1784098596489853000,9.76685302734375,0.0008249999955296516,-0.0015124999918043613,-0.0006874999962747097
1784098596499937500,9.7769375,0.0008249999955296516,-0.0015124999918043613,-0.0006874999962747097
1784098596510022400,9.7870224609375,-0.0002749999985098839,-0.002612499985843897,-0.0006874999962747097
1784098596520107500,9.797107421875,-0.0002749999985098839,-0.0004124999977648258,-0.0006874999962747097
1784098596530192100,9.807192138671875,-0.0002749999985098839,0.0016499999910593033,0.0004124999977648258
1784098596540277000,9.817277099609376,-0.0002749999985098839,0.0006874999962747097,0.0004124999977648258
1784098596550361900,9.82736181640625,-0.0013749999925494194,0.0006874999962747097,0.0004124999977648258
1784098596560446700,9.83744677734375,-0.0013749999925494194,0.002749999985098839,0.0015124999918043613
1784098596570531600,9.847531494140625,-0.0013749999925494194,0.0016499999910593033,0.0015124999918043613
1784098596580616400,9.857616455078125,-0.0013749999925494194,0.0006874999962747097,0.0004124999977648258
1784098596590701300,9.867701416015626,-0.0013749999925494194,0.002749999985098839,0.0015124999918043613
1784098596600786200,9.8777861328125,-0.0013749999925494194,0.002749999985098839,0.0015124999918043613
1784098596610871000,9.88787109375,-0.0013749999925494194,0.0016499999910593033,0.0015124999918043613
1784098596620956000,9.897955810546875,-0.0002749999985098839,0.0016499999910593033,0.0015124999918043613
1784098596631040800,9.908040771484375,-0.0013749999925494194,0.0016499999910593033,0.0015124999918043613
1784098596641125600,9.918125732421874,-0.0013749999925494194,0.0016499999910593033,0.0004124999977648258
1784098596651210500,9.92821044921875,-0.0002749999985098839,0.0006874999962747097,0.0004124999977648258
1784098596661295400,9.93829541015625,-0.0002749999985098839,-0.0004124999977648258,-0.0006874999962747097
1784098596671380200,9.948380126953126,-0.0002749999985098839,0.0006874999962747097,-0.0006874999962747097
1784098596681465000,9.958465087890625,-0.0002749999985098839,0.0006874999962747097,-0.0006874999962747097
1784098596691550000,9.968550048828124,-0.0002749999985098839,0.0006874999962747097,0.0004124999977648258
1784098596701634800,9.978634765625,0.0008249999955296516,-0.0004124999977648258,0.0004124999977648258
1784098596711719400,9.988719482421875,0.0008249999955296516,-0.0004124999977648258,-0.0006874999962747097
1784098596721804500,9.998804443359376,-0.0002749999985098839,-0.0004124999977648258,-0.0006874999962747097
1784098596731889200,10.00888916015625,-0.0002749999985098839,-0.0004124999977648258,-0.0017874999903142452
1784098596741974000,10.01897412109375,0.0008249999955296516,0.0006874999962747097,0.0004124999977648258
1784098596752059000,10.029058837890625,-0.0002749999985098839,-0.002612499985843897,0.0004124999977648258
1784098596762143700,10.039143798828125,0.0008249999955296516,-0.002612499985843897,-0.0006874999962747097
1784098596772228600,10.049228515625,0.0008249999955296516,0.0006874999962747097,0.0004124999977648258
1784098596782313500,10.0593134765625,0.0008249999955296516,-0.0015124999918043613,-0.0017874999903142452
1784098596792398300,10.0693984375,0.0008249999955296516,-0.0015124999918043613,-0.0006874999962747097
1784098596802483200,10.079483154296875,0.0008249999955296516,-0.0015124999918043613,0.0015124999918043613
1784098596812568000,10.089568115234375,0.0008249999955296516,-0.0015124999918043613,-0.0006874999962747097
1784098596822653000,10.09965283203125,0.0008249999955296516,-0.0015124999918043613,0.0004124999977648258
1784098596832737800,10.10973779296875,-0.0002749999985098839,-0.0015124999918043613,-0.0006874999962747097
1784098596842822700,10.11982275390625,-0.0002749999985098839,-0.0004124999977648258,0.0015124999918043613
1784098596852907500,10.129907470703126,0.0008249999955296516,-0.0004124999977648258,0.002474999986588955
1784098596862992100,10.1399921875,-0.0002749999985098839,0.0006874999962747097,-0.0017874999903142452
1784098596873077000,10.150076904296874,-0.0013749999925494194,0.0016499999910593033,0.0004124999977648258
1784098596883161900,10.160161865234375,-0.0002749999985098839,0.0006874999962747097,-0.0006874999962747097
1784098596893246700,10.170246826171875,-0.0002749999985098839,0.0006874999962747097,0.0004124999977648258
1784098596903331600,10.18033154296875,-0.0013749999925494194,0.0006874999962747097,0.0015124999918043613
1784098596913416400,10.19041650390625,-0.0013749999925494194,0.0016499999910593033,0.0004124999977648258
1784098596923501300,10.200501220703124,-0.0002749999985098839,0.0016499999910593033,0.0004124999977648258
1784098596933586200,10.210586181640625,-0.0013749999925494194,0.0016499999910593033,0.002474999986588955
1784098596943671000,10.220671142578125,-0.0013749999925494194,0.0016499999910593033,0.0004124999977648258
1784098596953756000,10.230755859375,-0.0002749999985098839,0.0016499999910593033,0.0015124999918043613
1784098596963840800,10.2408408203125,0.0008249999955296516,0.0016499999910593033,0.0004124999977648258
1784098596973925400,10.25092529296875,-0.0002749999985098839,0.0006874999962747097,-0.0006874999962747097
1784098596984010200,10.26101025390625,-0.0002749999985098839,0.0006874999962747097,0.0015124999918043613
1784098596994095000,10.27109521484375,-0.0002749999985098839,0.0006874999962747097,-0.0006874999962747097
1784098597004180000,10.281179931640626,0.0008249999955296516,-0.0004124999977648258,0.0004124999977648258
1784098597014264800,10.291264892578125,0.0008249999955296516,0.0006874999962747097,-0.0006874999962747097
1784098597024349700,10.301349609375,-0.0002749999985098839,0.0006874999962747097,-0.0017874999903142452
1784098597034434300,10.311434326171875,0.0008249999955296516,-0.0004124999977648258,-0.0006874999962747097
1784098597044519200,10.321519287109375,-0.0002749999985098839,-0.0004124999977648258,-0.0006874999962747097
1784098597054604000,10.33160400390625,0.0008249999955296516,-0.0004124999977648258,0.0004124999977648258
1784098597064689000,10.34168896484375,-0.0002749999985098839,0.0006874999962747097,-0.0006874999962747097
1784098597074773800,10.351773681640625,-0.0002749999985098839,0.0006874999962747097,-0.0017874999903142452
1784098597084858600,10.361858642578126,-0.0002749999985098839,-0.0015124999918043613,-0.0006874999962747097
1784098597094943500,10.371943603515625,-0.0002749999985098839,0.0006874999962747097,-0.0006874999962747097
1784098597105028400,10.3820283203125,0.0008249999955296516,-0.0004124999977648258,0.0004124999977648258
1784098597115113200,10.39211328125,0.0008249999955296516,-0.0015124999918043613,-0.0006874999962747097
1784098597125198000,10.402197998046875,0.0008249999955296516,-0.0004124999977648258,-0.0006874999962747097
1784098597135283000,10.412282958984376,0.0008249999955296516,-0.0015124999918043613,0.0004124999977648258
1784098597145367800,10.422367919921875,0.0008249999955296516,-0.0004124999977648258,0.0004124999977648258
1784098597155452700,10.43245263671875,0.0008249999955296516,-0.0015124999918043613,0.0004124999977648258
1784098597165537300,10.442537353515625,0.0008249999955296516,-0.0004124999977648258,0.0004124999977648258
1784098597175622400,10.452622314453125,0.0008249999955296516,-0.0015124999918043613,-0.0006874999962747097
1784098597185707000,10.46270703125,-0.0002749999985098839,0.0006874999962747097,0.0015124999918043613
1784098597195792000,10.4727919921875,0.0008249999955296516,0.0006874999962747097,0.0004124999977648258
1784098597205876700,10.482876708984374,-0.0013749999925494194,0.0006874999962747097,0.0015124999918043613
1784098597215961600,10.492961669921876,-0.0002749999985098839,0.0016499999910593033,0.0004124999977648258
1784098597226046500,10.50304638671875,-0.0002749999985098839,0.0016499999910593033,0.0015124999918043613
1784098597236131300,10.51313134765625,-0.0002749999985098839,0.0006874999962747097,0.0004124999977648258
1784098597246216000,10.5232158203125,-0.0013749999925494194,0.0016499999910593033,0.0004124999977648258
1784098597256300800,10.53330078125,-0.0002749999985098839,0.0006874999962747097,0.0004124999977648258
1784098597266386000,10.543385986328126,-0.0002749999985098839,0.0006874999962747097,0.0004124999977648258
1784098597276470500,10.553470458984375,-0.0013749999925494194,0.0016499999910593033,0.0004124999977648258
1784098597286555400,10.563555419921874,-0.0002749999985098839,0.0006874999962747097,-0.0006874999962747097
1784098597296640300,10.57364013671875,0.0008249999955296516,0.0006874999962747097,0.0004124999977648258
1784098597306725000,10.58372509765625,0.0008249999955296516,0.0006874999962747097,0.0004124999977648258
1784098597316810000,10.59381005859375,0.0008249999955296516,-0.0004124999977648258,0.0004124999977648258
1784098597326894800,10.603894775390625,0.0008249999955296516,-0.0015124999918043613,0.0004124999977648258
1784098597336979700,10.613979736328124,-0.0002749999985098839,-0.0004124999977648258,-0.0017874999903142452
1784098597347064300,10.624064208984375,-0.0002749999985098839,0.0006874999962747097,-0.0006874999962747097
1784098597357149200,10.634149169921875,0.0008249999955296516,0.0006874999962747097,-0.0006874999962747097
1784098597367234000,10.644234130859376,0.0008249999955296516,0.0006874999962747097,-0.0017874999903142452
1784098597377319000,10.65431884765625,-0.0002749999985098839,-0.0004124999977648258,-0.0006874999962747097
1784098597387403800,10.66440380859375,-0.0002749999985098839,-0.0004124999977648258,-0.0006874999962747097
1784098597397488600,10.674488525390625,-0.0002749999985098839,0.0006874999962747097,-0.0006874999962747097
1784098597407573500,10.684573486328125,-0.0002749999985098839,-0.0004124999977648258,0.0004124999977648258
1784098597417658400,10.694658447265626,-0.0002749999985098839,-0.0004124999977648258,-0.0006874999962747097
1784098597427743200,10.7047431640625,-0.0002749999985098839,0.0006874999962747097,-0.0006874999962747097
1784098597437828000,10.714828125,-0.0002749999985098839,-0.0004124999977648258,-0.0006874999962747097
1784098597447912700,10.72491259765625,0.0008249999955296516,-0.0015124999918043613,-0.0006874999962747097
1784098597457997800,10.734997802734375,0.0008249999955296516,-0.0015124999918043613,0.0004124999977648258
1784098597468082700,10.745082763671874,0.0008249999955296516,-0.0015124999918043613,-0.0006874999962747097
1784098597478167300,10.755167236328125,0.0008249999955296516,-0.0015124999918043613,0.0004124999977648258
1784098597488252200,10.765252197265625,0.0008249999955296516,-0.0015124999918043613,0.0004124999977648258
1784098597498337300,10.775337158203126,-0.0002749999985098839,-0.0004124999977648258,0.0004124999977648258
1784098597508422100,10.785422119140625,0.0008249999955296516,-0.0004124999977648258,0.0004124999977648258
1784098597518506800,10.7955068359375,0.0008249999955296516,-0.0015124999918043613,0.0015124999918043613
1784098597528592000,10.805591796875,-0.0002749999985098839,-0.0004124999977648258,0.0004124999977648258
1784098597538676500,10.815676513671875,0.0008249999955296516,-0.0004124999977648258,0.0015124999918043613
1784098597548761300,10.82576123046875,-0.0002749999985098839,0.0006874999962747097,0.0004124999977648258
1784098597558846200,10.83584619140625,-0.0002749999985098839,0.0016499999910593033,0.0004124999977648258
1784098597568931000,10.84593115234375,-0.0013749999925494194,0.0016499999910593033,0.0004124999977648258
1784098597579016000,10.856015869140625,-0.0002749999985098839,0.0006874999962747097,0.0004124999977648258
1784098597589100800,10.866100830078125,-0.0002749999985098839,0.0006874999962747097,0.0004124999977648258
1784098597599185700,10.876185546875,-0.0002749999985098839,0.0006874999962747097,-0.0006874999962747097
1784098597609270500,10.8862705078125,-0.0002749999985098839,0.0006874999962747097,-0.0006874999962747097
1784098597619355100,10.896355224609374,-0.0002749999985098839,0.0006874999962747097,0.0004124999977648258
1784098597629440000,10.90643994140625,-0.0002749999985098839,0.0006874999962747097,0.0004124999977648258
1784098597639524900,10.91652490234375,-0.0002749999985098839,0.0006874999962747097,-0.0006874999962747097
1784098597649609700,10.926609619140624,0.0008249999955296516,0.0006874999962747097,-0.0006874999962747097
1784098597659694600,10.936694580078125,-0.0002749999985098839,0.0006874999962747097,-0.0006874999962747097
1784098597669779500,10.946779541015625,-0.0002749999985098839,0.0006874999962747097,0.0004124999977648258
1784098597679864300,10.9568642578125,-0.0002749999985098839,0.0006874999962747097,0.0004124999977648258
1784098597689949200,10.96694921875,-0.0002749999985098839,-0.0004124999977648258,-0.0006874999962747097
1784098597700034000,10.977033935546874,-0.0002749999985098839,0.0006874999962747097,0.0004124999977648258
1784098597710119000,10.987118896484375,-0.0002749999985098839,0.0016499999910593033,0.0004124999977648258
1784098597720203800,10.997203857421875,-0.0013749999925494194,0.0006874999962747097,-0.0006874999962747097
1784098597730288600,11.00728857421875,-0.0002749999985098839,0.0006874999962747097,0.0004124999977648258
1784098597740373200,11.017373291015625,-0.0002749999985098839,0.0006874999962747097,0.0004124999977648258
1784098597750458000,11.0274580078125,-0.0002749999985098839,0.0006874999962747097,0.0004124999977648258
1784098597760543000,11.03754296875,-0.0002749999985098839,0.0006874999962747097,-0.0006874999962747097
1784098597770627800,11.0476279296875,-0.0002749999985098839,-0.0004124999977648258,0.0004124999977648258
1784098597780712700,11.057712646484376,-0.0002749999985098839,-0.0004124999977648258,0.0004124999977648258
1784098597790797600,11.067797607421875,0.0008249999955296516,-0.0004124999977648258,0.0004124999977648258
1784098597800882400,11.07788232421875,-0.0002749999985098839,-0.0004124999977648258,0.0004124999977648258
1784098597810967300,11.08796728515625,0.0008249999955296516,-0.0004124999977648258,0.0004124999977648258
1784098597821052200,11.09805224609375,0.0008249999955296516,-0.0004124999977648258,0.0004124999977648258
1784098597831137000,11.108136962890624,-0.0002749999985098839,-0.0004124999977648258,-0.0006874999962747097
1784098597841222000,11.118221923828125,0.0008249999955296516,-0.0004124999977648258,0.0004124999977648258
1784098597851306500,11.128306396484374,-0.0002749999985098839,-0.0004124999977648258,0.0004124999977648258
1784098597861391600,11.1383916015625,-0.0002749999985098839,0.0006874999962747097,-0.0006874999962747097
1784098597871476200,11.148476318359375,-0.0002749999985098839,0.0006874999962747097,0.0004124999977648258
1784098597881561000,11.15856103515625,-0.0002749999985098839,0.0016499999910593033,0.0004124999977648258
1784098597891646000,11.16864599609375,-0.0013749999925494194,0.0006874999962747097,-0.0006874999962747097
1784098597901730800,11.178730712890625,0.0008249999955296516,0.0006874999962747097,0.0004124999977648258
1784098597911815700,11.188815673828126,0.0008249999955296516,0.0006874999962747097,-0.0006874999962747097
1784098597921900500,11.198900634765625,-0.0002749999985098839,0.0006874999962747097,-0.0006874999962747097
1784098597931985400,11.2089853515625,-0.0002749999985098839,0.0006874999962747097,0.0004124999977648258
1784098597942070300,11.2190703125,0.0008249999955296516,-0.0004124999977648258,-0.0006874999962747097
1784098597952155000,11.22915478515625,-0.0002749999985098839,0.0006874999962747097,-0.0006874999962747097
1784098597962240000,11.239239990234376,-0.0002749999985098839,0.0006874999962747097,0.0004124999977648258
1784098597972324600,11.24932470703125,-0.0002749999985098839,-0.0004124999977648258,-0.0006874999962747097
1784098597982409500,11.259409423828124,-0.0002749999985098839,0.0006874999962747097,-0.0006874999962747097
1784098597992494300,11.269494384765625,-0.0002749999985098839,0.0006874999962747097,-0.0006874999962747097
1784098598002579200,11.2795791015625,-0.0002749999985098839,0.0016499999910593033,-0.0006874999962747097
1784098598012664000,11.2896640625,-0.0002749999985098839,0.0006874999962747097,-0.0006874999962747097
1784098598022749000,11.2997490234375,-0.0002749999985098839,0.0006874999962747097,0.0004124999977648258
1784098598032833800,11.309833740234374,0.0008249999955296516,0.0006874999962747097,-0.0006874999962747097
1784098598042918400,11.31991845703125,-0.0002749999985098839,0.0016499999910593033,0.0004124999977648258
1784098598053003300,11.330003173828125,-0.0002749999985098839,0.0006874999962747097,0.0004124999977648258
1784098598063088000,11.340088134765624,-0.0002749999985098839,-0.0004124999977648258,0.0004124999977648258
1784098598073173000,11.350173095703125,0.0008249999955296516,0.0006874999962747097,0.0004124999977648258
1784098598083257900,11.3602578125,-0.0002749999985098839,-0.0004124999977648258,0.0004124999977648258
1784098598093342700,11.3703427734375,0.0008249999955296516,-0.0004124999977648258,0.0004124999977648258
1784098598103427600,11.380427490234375,0.0008249999955296516,-0.0004124999977648258,0.0004124999977648258
1784098598113512400,11.390512451171874,0.0008249999955296516,-0.0004124999977648258,0.0004124999977648258
1784098598123597300,11.400597412109375,-0.0002749999985098839,-0.0015124999918043613,0.0004124999977648258
1784098598133682200,11.41068212890625,0.0008249999955296516,-0.0004124999977648258,0.0004124999977648258
1784098598143766800,11.420766845703126,0.0008249999955296516,-0.0004124999977648258,0.0004124999977648258
1784098598153851600,11.4308515625,-0.0002749999985098839,-0.0004124999977648258,0.0004124999977648258
1784098598163936500,11.4409365234375,-0.0002749999985098839,-0.0004124999977648258,-0.0006874999962747097
1784098598174021400,11.451021484375,-0.0002749999985098839,0.0006874999962747097,-0.0006874999962747097
1784098598184106200,11.461106201171875,0.0008249999955296516,-0.0004124999977648258,-0.0006874999962747097
1784098598194191000,11.471191162109376,-0.0002749999985098839,0.0006874999962747097,0.0004124999977648258
1784098598204276000,11.48127587890625,-0.0002749999985098839,0.0006874999962747097,0.0004124999977648258
1784098598214360800,11.49136083984375,-0.0002749999985098839,0.0006874999962747097,-0.0006874999962747097
1784098598224445700,11.50144580078125,0.0008249999955296516,-0.0004124999977648258,-0.0006874999962747097
1784098598234530600,11.511530517578125,-0.0002749999985098839,0.0006874999962747097,-0.0006874999962747097
1784098598244615400,11.521615478515624,0.0008249999955296516,0.0006874999962747097,-0.0006874999962747097
1784098598254700300,11.5317001953125,-0.0002749999985098839,-0.0004124999977648258,0.0004124999977648258
1784098598264785200,11.54178515625,-0.0002749999985098839,-0.0004124999977648258,-0.0006874999962747097
1784098598274870000,11.5518701171875,-0.0002749999985098839,0.0006874999962747097,-0.0006874999962747097
1784098598284955000,11.561954833984375,-0.0002749999985098839,0.0006874999962747097,-0.0006874999962747097
1784098598295039500,11.57203955078125,-0.0002749999985098839,0.0006874999962747097,-0.0006874999962747097
1784098598305124400,11.582124267578125,-0.0002749999985098839,0.0006874999962747097,0.0004124999977648258
1784098598315209200,11.592209228515625,0.0008249999955296516,0.0006874999962747097,0.0004124999977648258
1784098598325294000,11.602294189453126,-0.0013749999925494194,0.0006874999962747097,-0.0006874999962747097
1784098598335379000,11.61237890625,-0.0002749999985098839,0.0006874999962747097,-0.0006874999962747097
1784098598345463800,11.6224638671875,-0.0002749999985098839,0.0006874999962747097,-0.0006874999962747097
1784098598355548700,11.632548583984375,-0.0002749999985098839,0.0006874999962747097,0.0004124999977648258
1784098598365633500,11.642633544921875,-0.0002749999985098839,0.0006874999962747097,0.0004124999977648258
1784098598375718400,11.652718505859376,-0.0002749999985098839,-0.0004124999977648258,0.0004124999977648258
1784098598385803300,11.66280322265625,0.0008249999955296516,-0.0004124999977648258,0.0004124999977648258
1784098598395887900,11.672887939453124,-0.0002749999985098839,-0.0004124999977648258,0.0004124999977648258
1784098598405972700,11.68297265625,-0.0002749999985098839,0.0006874999962747097,0.0015124999918043613
1784098598416057600,11.6930576171875,0.0008249999955296516,-0.0015124999918043613,0.0004124999977648258
1784098598426142500,11.703142578125,0.0008249999955296516,-0.0004124999977648258,0.0004124999977648258
1784098598436227300,11.713227294921875,0.0008249999955296516,-0.0004124999977648258,-0.0006874999962747097
1784098598446312000,11.72331201171875,0.0008249999955296516,-0.0004124999977648258,-0.0006874999962747097
1784098598456396800,11.733396728515626,0.0008249999955296516,0.0006874999962747097,0.0004124999977648258
1784098598466481700,11.743481689453125,-0.0002749999985098839,-0.0004124999977648258,-0.0006874999962747097
1784098598476566500,11.75356640625,0.0008249999955296516,-0.0004124999977648258,0.0004124999977648258
1784098598486651400,11.7636513671875,-0.0002749999985098839,-0.0004124999977648258,0.0004124999977648258
1784098598496736300,11.773736328125,0.0008249999955296516,-0.0004124999977648258,0.0004124999977648258
