time,seconds_elapsed,z,y,x
1784098586808423400,0.08542333984375,8.746050834655762,4.180950164794922,0.11700000613927841
1784098586818508300,0.09550830078125,8.779950141906738,4.1770501136779785,0.06705000251531601
1784098586828527600,0.105527587890625,8.73900032043457,4.150050163269043,0.08295000344514847
1784098586838677800,0.115677734375,8.655000686645508,4.122000217437744,0.18405000865459442
1784098586848762400,0.125762451171875,8.526000022888184,4.1170501708984375,0.30105000734329224
1784098586858770700,0.135770751953125,8.21505069732666,4.168950080871582,0.42600002884864807
1784098586868932000,0.14593212890625,7.948950290679932,4.258049964904785,0.4069500267505646
1784098586878912300,0.155912353515625,7.9800004959106445,4.300950050354004,0.16005000472068787
1784098586889101300,0.166101318359375,8.104949951171875,4.308000087738037,-0.016050001606345177
1784098586899114800,0.17611474609375,7.873050212860107,4.3969502449035645,-0.09495000541210175
1784098586909270800,0.186270751953125,7.573050498962402,4.603050231933594,-0.1360500007867813
1784098586919256600,0.196256591796875,7.903950214385986,4.693950176239014,0.032999999821186066
1784098586929327400,0.206327392578125,8.383049964904785,4.52400016784668,0.39195001125335693
1784098586939525000,0.216525146484375,8.679000854492188,4.371000289916992,0.7270500063896179
1784098586949530000,0.226530029296875,8.208000183105469,4.210050106048584,1.0270500183105469
1784098586959601000,0.236600830078125,7.659000396728516,3.9160501956939697,1.4310001134872437
1784098586969671700,0.246671630859375,7.855950355529785,3.4459502696990967,1.6990500688552856
1784098586979742500,0.256742431640625,7.92495059967041,3.2860500812530518,1.443000078201294
1784098586989874200,0.266874267578125,8.112000465393066,3.3169500827789307,0.7699500322341919
1784098586999945000,0.276945068359375,9.019050598144531,3.1810500621795654,0.04005000367760658
1784098587010046500,0.28704638671875,9.76395034790039,3.3169500827789307,-0.43800002336502075
1784098587020086800,0.297086669921875,9.559950828552246,3.6090002059936523,-0.6199500560760498
1784098587030287600,0.30728759765625,8.722050666809082,3.7380001544952393,-0.6199500560760498
1784098587040372200,0.317372314453125,7.558950424194336,4.147950172424316,-0.6220500469207764
1784098587050360000,0.327360107421875,7.068000316619873,5.5320000648498535,-1.0459500551223755
1784098587060430800,0.337430908203125,8.553000450134277,7.629000186920166,-2.1469500064849854
1784098587070532400,0.347532470703125,10.61400032043457,8.842950820922852,-3.201000213623047
1784098587080603100,0.35760302734375,10.693050384521484,7.507050514221191,-3.3829500675201416
1784098587090734800,0.36773486328125,10.092000007629395,5.091000080108643,-2.9730000495910645
1784098587100805600,0.3778056640625,9.81705093383789,4.23900032043457,-2.616000175476074
1784098587110876400,0.38787646484375,8.73705005645752,4.6870503425598145,-2.430000066757202
1784098587120978000,0.39797802734375,7.579950332641602,4.869000434875488,-2.080049991607666
1784098587131048700,0.408048583984375,7.1419501304626465,4.5169501304626465,-1.64205002784729
1784098587141150000,0.41814990234375,7.398000240325928,4.404000282287598,-1.4479501247406006
1784098587151190300,0.428190185546875,8.047050476074219,4.8420000076293945,-1.6470000743865967
1784098587161389000,0.43838916015625,8.620050430297852,5.307000160217285,-2.0250000953674316
1784098587171362300,0.4483623046875,9.019050598144531,5.424000263214111,-2.2519500255584717
1784098587181494000,0.458493896484375,9.127050399780273,5.356950283050537,-2.3460001945495605
1784098587191534300,0.468534423828125,8.683950424194336,5.331000328063965,-2.4180002212524414
1784098587201635800,0.4786357421875,7.954050540924072,5.218050479888916,-2.430000066757202
1784098587211812900,0.488812744140625,7.690950393676758,4.948050022125244,-2.371950149536133
1784098587221777400,0.49877734375,7.825050354003906,4.629000186920166,-2.2980000972747803
1784098587231878700,0.508878662109375,7.726950168609619,4.40595006942749,-2.2759501934051514
1784098587241949400,0.518949462890625,7.293000221252441,4.296000003814697,-2.260050058364868
1784098587252081200,0.5290810546875,7.209000110626221,4.023000240325928,-2.098950147628784
1784098587262236400,0.539236328125,7.509000301361084,3.7860002517700195,-1.9030500650405884
1784098587272321000,0.549321044921875,7.759950160980225,4.011000156402588,-1.8430501222610474
1784098587282293800,0.559293701171875,7.8510003089904785,4.372950077056885,-1.7830500602722168
1784098587292425500,0.569425537109375,7.675950527191162,4.5259504318237305,-1.5799500942230225
1784098587302465800,0.5794658203125,7.24500036239624,4.501950263977051,-1.3759500980377197
1784098587312660000,0.589659912109375,6.952950477600098,4.459050178527832,-1.350000023841858
1784098587322637800,0.599637939453125,7.116000175476074,4.654950141906738,-1.5169501304626465
1784098587332708900,0.609708984375,7.291050434112549,4.864050388336182,-1.6279500722885132
1784098587342840600,0.619840576171875,7.51800012588501,4.999950408935547,-1.4239500761032104
1784098587352881000,0.629880859375,8.071050643920898,5.296950340270996,-0.9979500770568848
1784098587363083800,0.640083740234375,8.599950790405273,5.761950492858887,-0.7060500383377075
1784098587373083400,0.65008349609375,8.822999954223633,6.244950294494629,-0.8209500312805176
1784098587383154200,0.660154296875,8.778000831604004,6.670950412750244,-1.1100000143051147
1784098587393225200,0.67022509765625,8.695950508117676,7.051950454711914,-1.258950114250183
1784098587403357000,0.68035693359375,8.707950592041016,7.35105037689209,-1.2490500211715698
1784098587413507300,0.69050732421875,8.608050346374512,7.489950180053711,-1.1770501136779785
1784098587423529000,0.700529052734375,7.975950241088867,7.390050411224365,-1.2300000190734863
1784098587433599700,0.710599853515625,6.781050205230713,7.171950340270996,-1.615950107574463
1784098587443670800,0.7206708984375,5.647950172424316,6.913050174713135,-2.0869500637054443
1784098587453772000,0.73077197265625,5.055000305175781,6.772050380706787,-2.0299501419067383
1784098587463931100,0.74093115234375,5.299050331115723,6.789000511169434,-1.1460000276565552
1784098587473944000,0.750944091796875,5.991000175476074,6.832050323486328,-0.10005000233650208
1784098587483984400,0.760984375,6.304050445556641,6.95205020904541,0.2770500183105469
1784098587494185200,0.771185302734375,6.084000110626221,6.907950401306152,-0.24795001745224
1784098587504270000,0.78127001953125,6.007050514221191,6.721950531005859,-1.6489500999450684
1784098587514354700,0.791354736328125,6.321000099182129,6.573000431060791,-3.315000057220459
1784098587524328700,0.80132861328125,6.39300012588501,6.375000476837158,-4.624950408935547
1784098587534429700,0.8114296875,6.288000106811523,6.235950469970703,-5.406000137329102
1784098587544531200,0.82153125,6.558000087738037,6.219000339508057,-5.530050277709961
1784098587559735800,0.83673583984375,8.22195053100586,5.769000053405762,-3.598050117492676
1784098587574863000,0.851863037109375,9.57705020904541,5.067000389099121,-2.329050064086914
1784098587584947700,0.86194775390625,9.769050598144531,4.303950309753418,-1.6440000534057617
1784098587595032600,0.872032470703125,9.970050811767578,3.7819502353668213,-1.3230000734329224
1784098587605117200,0.8821171875,10.492050170898438,3.403050184249878,-1.7160000801086426
1784098587615202000,0.8922021484375,10.927950859069824,3.295950174331665,-2.8410000801086426
1784098587625286700,0.90228662109375,11.245950698852539,3.163950204849243,-3.9280502796173096
1784098587635371500,0.91237158203125,11.445000648498535,3.0490500926971436,-4.234950065612793
1784098587645456100,0.9224560546875,11.086050987243652,2.413950204849243,-3.4830002784729004
1784098587655541000,0.932541015625,10.249950408935547,1.3369500637054443,-2.1469500064849854
1784098587665625600,0.94262548828125,9.738000869750977,0.33195000886917114,-0.2580000162124634
1784098587675710500,0.95271044921875,9.643950462341309,-0.27105000615119934,2.038950204849243
1784098587685795300,0.96279541015625,9.723000526428223,-0.43605002760887146,3.664950132369995
1784098587695880000,0.9728798828125,9.793050765991211,0.10605000704526901,3.8179502487182617
1784098587705964800,0.98296484375,10.450950622558594,0.5040000081062317,3.178950071334839
1784098587716049400,0.99304931640625,11.287050247192383,0.34095001220703125,2.382000207901001
1784098587726134000,1.003134033203125,11.493000984191895,0.46995002031326294,1.738050103187561
1784098587736219000,1.013218994140625,11.878050804138184,0.906000018119812,1.4910000562667847
1784098587746303500,1.023303466796875,12.072000503540039,0.922950029373169,1.7449500560760498
1784098587756388400,1.033388427734375,12.505050659179688,0.7669500112533569,1.8960001468658447
1784098587766473200,1.04347314453125,12.498000144958496,0.11100000888109207,2.11395001411438
1784098587776557800,1.053557861328125,12.229950904846191,-0.28995001316070557,2.152050018310547
1784098587786642700,1.063642578125,11.77695083618164,-0.34005001187324524,1.7830500602722168
1784098587796727300,1.073727294921875,11.236050605773926,0.4440000355243683,1.0860000848770142
1784098587806812200,1.083812255859375,11.244000434875488,1.300950050354004,0.7440000176429749
1784098587816896800,1.093896728515625,11.590950965881348,1.6150500774383545,0.7510500550270081
1784098587826981600,1.103981689453125,11.658000946044922,1.4830501079559326,1.051050066947937
1784098587837066200,1.114066162109375,10.90095043182373,1.2720000743865967,1.6110000610351562
1784098587847151000,1.124151123046875,9.733050346374512,1.0549499988555908,2.3239500522613525
1784098587857235700,1.134235595703125,8.794050216674805,0.8530500531196594,3.069000244140625
1784098587867320600,1.144320556640625,7.827000141143799,1.158000111579895,3.3439502716064453
1784098587877405200,1.1544052734375,8.019000053405762,1.4089500904083252,3.4180500507354736
1784098587887490000,1.164489990234375,8.572050094604492,1.4830501079559326,3.178950071334839
1784098587897575000,1.174574951171875,9.61305046081543,1.456950068473816,2.680950164794922
1784098587907659500,1.184659423828125,10.618950843811035,1.6530001163482666,1.9000500440597534
1784098587917744400,1.194744384765625,10.819950103759766,2.3620500564575195,0.8970000147819519
1784098587927829000,1.2048291015625,17.548049926757812,-0.6780000329017639,4.783050060272217
1784098587937913900,1.214913818359375,9.883950233459473,-3.340050220489502,4.888050079345703
1784098587947998500,1.22499853515625,6.862050533294678,-7.558950424194336,1.7190001010894775
1784098587958083300,1.235083251953125,6.831000328063965,11.590950965881348,2.998950242996216
1784098587968168000,1.24516796875,8.81100082397461,0.6450000405311584,2.098950147628784
1784098587978252800,1.255252685546875,13.147050857543945,6.006000518798828,3.567000150680542
1784098587988337400,1.26533740234375,9.118050575256348,4.111950397491455,2.2639501094818115
1784098587998422300,1.27542236328125,9.229950904846191,4.2270002365112305,2.5920000076293945
1784098588008507100,1.285507080078125,8.445000648498535,4.344000339508057,2.2069501876831055
1784098588018591700,1.295591796875,8.296050071716309,4.33905029296875,2.0869500637054443
1784098588028676600,1.305676513671875,8.371050834655762,4.6840500831604,2.367000102996826
1784098588038761500,1.315761474609375,8.45895004272461,4.552950382232666,2.2980000972747803
1784098588048846000,1.32584619140625,8.473050117492676,4.5,2.2380001544952393
1784098588058930700,1.3359306640625,8.632050514221191,4.5360002517700195,2.2960500717163086
1784098588069015600,1.346015625,8.548050880432129,4.468950271606445,2.2519500255584717
1784098588079100200,1.35610009765625,8.550000190734863,4.468950271606445,2.1949501037597656
1784098588089185000,1.36618505859375,8.421000480651855,4.432950019836426,2.1760501861572266
1784098588099270000,1.376269775390625,8.643000602722168,4.44195032119751,2.2759501934051514
1784098588109354500,1.3863544921875,10.786050796508789,4.107000350952148,2.2290000915527344
1784098588119439400,1.396439453125,8.890050888061523,4.5259504318237305,2.2639501094818115
1784098588129524000,1.40652392578125,6.817050457000732,4.581000328063965,2.7049500942230225
1784098588139608800,1.41660888671875,8.920950889587402,4.753950119018555,2.623950242996216
1784098588149693400,1.426693359375,8.679000854492188,4.432950019836426,2.458050012588501
1784098588159778300,1.4367783203125,7.437000274658203,3.52305006980896,1.8600001335144043
1784098588169863000,1.44686279296875,9.333000183105469,4.678950309753418,0.7969500422477722
1784098588179947800,1.45694775390625,6.268050193786621,6.77400016784668,1.0390501022338867
1784098588190032400,1.467032470703125,2.9790000915527344,4.336950302124023,1.3120501041412354
1784098588200117200,1.4771171875,6.429000377655029,5.029050350189209,-0.8880000710487366
1784098588210201900,1.487201904296875,7.248000144958496,5.023950099945068,-1.3380000591278076
1784098588220286700,1.49728662109375,9.091050148010254,4.210050106048584,-1.4530500173568726
1784098588230371600,1.50737158203125,10.66200065612793,1.8259501457214355,12.277050971984863
1784098588240456200,1.517456298828125,-4.1170501708984375,9.207000732421875,4.422000408172607
1784098588250541000,1.527541015625,19.15904998779297,2.7660000324249268,8.236050605773926
1784098588260625700,1.537625732421875,7.894050598144531,8.785050392150879,0.0499500036239624
1784098588270710500,1.54771044921875,10.770000457763672,4.183950424194336,2.6620500087738037
1784098588280795400,1.55779541015625,7.498950481414795,5.989050388336182,2.02305006980896
1784098588290880000,1.5678798828125,7.318950176239014,5.572050094604492,2.0820000171661377
1784098588300964600,1.577964599609375,6.333000183105469,5.452950477600098,2.311950206756592
1784098588311049500,1.588049560546875,6.300000190734863,5.247000217437744,2.1060001850128174
1784098588321134000,1.598134033203125,5.725050449371338,5.260950088500977,2.110949993133545
1784098588331219000,1.608218994140625,4.276050090789795,4.926000118255615,2.02305006980896
1784098588341303800,1.6183037109375,3.592050075531006,5.107950210571289,1.8600001335144043
1784098588351388400,1.628388427734375,4.188000202178955,4.8949503898620605,1.5799500942230225
1784098588361473300,1.638473388671875,9.376049995422363,4.543050289154053,1.3669500350952148
1784098588371558000,1.648557861328125,20.253000259399414,5.596050262451172,2.149049997329712
1784098588381642500,1.658642578125,14.040000915527344,8.40195083618164,-1.596000075340271
1784098588391727400,1.668727294921875,7.092000484466553,5.173050403594971,1.7280000448226929
1784098588401812000,1.67881201171875,6.892950534820557,5.379000186920166,1.1650500297546387
1784098588411896800,1.688896728515625,8.706000328063965,5.527050495147705,1.2370500564575195
1784098588421981700,1.698981689453125,8.670000076293945,5.460000038146973,1.2780001163482666
1784098588432066300,1.70906640625,6.868950366973877,5.283000469207764,1.2709500789642334
1784098588442151200,1.719151123046875,3.142050266265869,4.82295036315918,1.659000039100647
1784098588452235800,1.72923583984375,0.9799500703811646,4.035000324249268,1.6800000667572021
1784098588462320600,1.739320556640625,1.755000114440918,4.090050220489502,2.39805006980896
1784098588472405200,1.7494052734375,5.596050262451172,5.283000469207764,1.4220000505447388
1784098588482490000,1.759489990234375,11.031000137329102,7.669950485229492,-1.3429501056671143
1784098588492574700,1.76957470703125,21.11505126953125,5.158050060272217,0.9480000734329224
1784098588502659600,1.77965966796875,22.180051803588867,5.158050060272217,-3.2989501953125
1784098588512744400,1.789744384765625,-4.4569501876831055,4.275000095367432,1.5649501085281372
1784098588522829000,1.7998291015625,7.803000450134277,7.1260504722595215,-2.382000207901001
1784098588532914000,1.809913818359375,5.023050308227539,6.712050437927246,-0.08295000344514847
1784098588542998500,1.81999853515625,16.935001373291016,5.332950115203857,-1.3380000591278076
1784098588553083400,1.83008349609375,6.898050308227539,5.794950485229492,0.43800002336502075
1784098588563168300,1.840168212890625,4.6020002365112305,5.263950347900391,0.4540500342845917
1784098588573252900,1.8502529296875,12.733050346374512,5.556000232696533,-0.8089500665664673
1784098588583337700,1.860337646484375,5.521050453186035,5.340000152587891,0.39900001883506775
1784098588593422300,1.87042236328125,9.634950637817383,5.473950386047363,-0.1860000044107437
1784098588603507200,1.880507080078125,7.342950344085693,5.428950309753418,0
1784098588613591800,1.890591796875,8.617050170898438,5.413950443267822,-0.07395000010728836
1784098588623676700,1.9006767578125,8.098050117492676,5.425950050354004,-0.004050000105053186
1784098588633761500,1.910761474609375,8.080950736999512,5.386050224304199,-0.06405000388622284
1784098588643846100,1.92084619140625,8.434950828552246,5.425950050354004,-0.06705000251531601
1784098588653931000,1.930930908203125,7.963950157165527,5.404950141906738,-0.016050001606345177
1784098588664016000,1.941015869140625,8.356050491333008,5.428950309753418,-0.08100000023841858
1784098588674100500,1.9511005859375,8.1739501953125,5.410050392150879,-0.04305000230669975
1784098588684185300,1.961185302734375,8.113950729370117,5.401950359344482,-0.05205000191926956
1784098588694270000,1.97127001953125,8.338950157165527,5.407050132751465,-0.05700000375509262
1784098588704354800,1.981354736328125,8.044950485229492,5.400000095367432,-0.0499500036239624
1784098588714439700,1.991439697265625,8.275050163269043,5.404950141906738,-0.05505000427365303
1784098588724524300,2.001524169921875,8.157000541687012,5.416950225830078,-0.0499500036239624
1784098588734609200,2.011609130859375,8.152950286865234,5.424000263214111,-0.046950001269578934
1784098588744693800,2.02169384765625,8.212950706481934,5.413950443267822,-0.05505000427365303
1784098588754778600,2.031778564453125,8.157000541687012,5.416950225830078,-0.0499500036239624
1784098588764863500,2.041863525390625,8.160000801086426,5.424000263214111,-0.04005000367760658
1784098588774948000,2.051947998046875,8.20305061340332,5.425950050354004,-0.04305000230669975
1784098588785033000,2.062032958984375,8.13794994354248,5.424000263214111,-0.034950003027915955
1784098588795117800,2.072117919921875,8.19795036315918,5.428950309753418,-0.034950003027915955
1784098588805202400,2.082202392578125,8.176950454711914,5.4340500831604,-0.025950001552700996
1784098588815287300,2.092287353515625,8.164950370788574,5.436000347137451,-0.025950001552700996
1784098588825372000,2.102371826171875,8.196000099182129,5.436000347137451,-0.028050001710653305
1784098588835456800,2.112456787109375,8.17199993133545,5.440950393676758,-0.028050001710653305
1784098588845541400,2.122541259765625,8.176950454711914,5.428950309753418,-0.022950001060962677
1784098588855626200,2.132626220703125,8.196000099182129,5.4340500831604,-0.025950001552700996
1784098588865710800,2.1427109375,8.188950538635254,5.4310503005981445,-0.021000001579523087
1784098588875795700,2.152795654296875,8.188950538635254,5.4310503005981445,-0.022950001060962677
1784098588885880300,2.16288037109375,8.19795036315918,5.428950309753418,-0.022950001060962677
1784098588895965200,2.172965087890625,8.19105052947998,5.424000263214111,-0.031050002202391624
1784098588906050000,2.183050048828125,8.18595027923584,5.424000263214111,-0.032999999821186066
1784098588916134700,2.193134765625,8.188950538635254,5.425950050354004,-0.034950003027915955
1784098588926219500,2.203219482421875,8.184000015258789,5.419050216674805,-0.04500000178813934
1784098588936304400,2.213304443359375,8.176950454711914,5.425950050354004,-0.04305000230669975
1784098588946389000,2.223388916015625,8.196000099182129,5.416950225830078,-0.0499500036239624
1784098588956473900,2.233473876953125,8.181000709533691,5.419050216674805,-0.046950001269578934
1784098588966558500,2.243558349609375,8.188950538635254,5.413950443267822,-0.05505000427365303
1784098588976643300,2.253643310546875,8.19795036315918,5.416950225830078,-0.06195000186562538
1784098588986728200,2.263728271484375,8.184000015258789,5.416950225830078,-0.05700000375509262
1784098588996812800,2.273812744140625,8.18595027923584,5.4120001792907715,-0.06705000251531601
1784098589006897700,2.283897705078125,8.184000015258789,5.410050392150879,-0.05505000427365303
1784098589016982500,2.293982421875,8.19795036315918,5.4120001792907715,-0.05895000323653221
1784098589027067100,2.304067138671875,8.18595027923584,5.4120001792907715,-0.05505000427365303
1784098589037152000,2.314152099609375,8.200950622558594,5.4120001792907715,-0.05505000427365303
1784098589047236900,2.32423681640625,8.17905044555664,5.4120001792907715,-0.05700000375509262
1784098589057321700,2.33432177734375,8.20995044708252,5.4120001792907715,-0.04305000230669975
1784098589067406300,2.34440625,8.19105052947998,5.425950050354004,-0.05505000427365303
1784098589077491200,2.3544912109375,8.188950538635254,5.428950309753418,-0.031050002202391624
1784098589087576000,2.364576171875,8.20995044708252,5.424000263214111,-0.028050001710653305
1784098589097660700,2.37466064453125,8.188950538635254,5.4120001792907715,-0.016050001606345177
1784098589107745500,2.38474560546875,8.256000518798828,5.419050216674805,-0.019050000235438347
1784098589117830400,2.394830322265625,8.220000267028809,5.4340500831604,-0.046950001269578934
1784098589127915000,2.4049150390625,8.098050117492676,5.461950302124023,0.013950000517070293
1784098589138000000,2.414999755859375,8.293950080871582,5.4310503005981445,-0.06195000186562538
1784098589148084700,2.425084716796875,8.089950561523438,5.425950050354004,0.009000000543892384
1784098589158169300,2.43516943359375,8.1739501953125,5.401950359344482,-0.046950001269578934
1784098589168254200,2.445254150390625,8.289000511169434,5.386050224304199,-0.022950001060962677
1784098589178339000,2.455339111328125,8.155050277709961,5.404950141906738,-0.028050001710653305
1784098589188423700,2.465423583984375,8.193000793457031,5.4340500831604,-0.034950003027915955
1784098589198508500,2.475508544921875,8.200950622558594,5.419050216674805,-0.04500000178813934
1784098589208593200,2.48559326171875,8.119050025939941,5.424000263214111,-0.037950001657009125
1784098589218678000,2.495677978515625,8.229000091552734,5.389950275421143,-0.05205000191926956
1784098589228763000,2.505762939453125,8.21505069732666,5.392950057983398,-0.06195000186562538
1784098589238847500,2.515847412109375,8.145000457763672,5.410050392150879,-0.05505000427365303
1784098589248932400,2.525932373046875,8.224050521850586,5.401950359344482,-0.05505000427365303
1784098589259017200,2.536017333984375,8.20995044708252,5.416950225830078,-0.07395000010728836
1784098589269101800,2.546101806640625,8.145000457763672,5.428950309753418,-0.031050002202391624
1784098589279186700,2.556186767578125,8.20995044708252,5.4310503005981445,-0.06705000251531601
1784098589289271600,2.566271484375,8.289000511169434,5.392950057983398,-0.06195000186562538
1784098589299356400,2.5763564453125,8.1670503616333,5.4310503005981445,-0.019050000235438347
1784098589309441000,2.58644091796875,8.251049995422363,5.437950134277344,-0.07095000147819519
1784098589319526000,2.59652587890625,8.280000686645508,5.443050384521484,-0.0499500036239624
1784098589329610800,2.60661083984375,8.098050117492676,5.467050075531006,-0.013950000517070293
1784098589339695400,2.6166953125,8.184000015258789,5.479050159454346,-0.05505000427365303
1784098589349780200,2.6267802734375,8.304000854492188,5.367000102996826,-0.08100000023841858
1784098589359865000,2.636864990234375,8.098050117492676,5.338050365447998,0.05700000375509262
1784098589369949700,2.64694970703125,8.368050575256348,5.407050132751465,-0.06195000186562538
1784098589380034600,2.65703466796875,8.301000595092773,5.4810004234313965,-0.032999999821186066
1784098589390119400,2.667119384765625,7.9830002784729,5.5320000648498535,-0.04305000230669975
1784098589400204300,2.677204345703125,8.22195053100586,5.449950218200684,-0.016050001606345177
1784098589410289000,2.687288818359375,8.212950706481934,5.401950359344482,-0.06705000251531601
1784098589420373800,2.697373779296875,8.076000213623047,5.386050224304199,-0.009000000543892384
1784098589430458600,2.707458740234375,8.220000267028809,5.379000186920166,-0.05700000375509262
1784098589440543200,2.717543212890625,8.229000091552734,5.4120001792907715,-0.019050000235438347
1784098589450628400,2.72762841796875,8.088000297546387,5.443050384521484,-0.021000001579523087
1784098589460713000,2.737712890625,8.236050605773926,5.400000095367432,-0.04305000230669975
1784098589470797800,2.7477978515625,8.188950538635254,5.400000095367432,-0.022950001060962677
1784098589480882400,2.75788232421875,8.14995002746582,5.407050132751465,-0.034950003027915955
1784098589490967300,2.76796728515625,8.232000350952148,5.401950359344482,-0.04305000230669975
1784098589501052200,2.77805224609375,8.204999923706055,5.416950225830078,-0.0499500036239624
1784098589511137000,2.788136962890625,8.13794994354248,5.428950309753418,-0.025950001552700996
1784098589521222000,2.798221923828125,8.248050689697266,5.404950141906738,-0.0690000057220459
1784098589531306500,2.808306396484375,8.184000015258789,5.424000263214111,-0.04500000178813934
1784098589541391400,2.818391357421875,8.181000709533691,5.416950225830078,-0.04500000178813934
1784098589551476200,2.828476318359375,8.241000175476074,5.422050476074219,-0.05700000375509262
1784098589561560800,2.838560791015625,8.193000793457031,5.413950443267822,-0.05205000191926956
1784098589571645700,2.848645751953125,8.193000793457031,5.425950050354004,-0.05700000375509262
1784098589581730600,2.85873046875,8.22195053100586,5.424000263214111,-0.06195000186562538
1784098589591815400,2.8688154296875,8.200950622558594,5.428950309753418,-0.05700000375509262
1784098589601900300,2.878900390625,8.188950538635254,5.4340500831604,-0.05205000191926956
1784098589611985000,2.88898486328125,8.229000091552734,5.4310503005981445,-0.06405000388622284
1784098589622069800,2.89906982421875,8.176950454711914,5.4340500831604,-0.046950001269578934
1784098589632154600,2.909154541015625,8.19795036315918,5.4340500831604,-0.046950001269578934
1784098589642239500,2.919239501953125,8.200950622558594,5.4310503005981445,-0.04500000178813934
1784098589652324000,2.929323974609375,8.18595027923584,5.4310503005981445,-0.04305000230669975
1784098589662409000,2.939408935546875,8.1670503616333,5.4340500831604,-0.028050001710653305
1784098589672493800,2.949493896484375,8.21505069732666,5.424000263214111,-0.04005000367760658
1784098589682578700,2.95957861328125,8.157000541687012,5.436000347137451,-0.021000001579523087
1784098589692663600,2.96966357421875,8.188950538635254,5.424000263214111,-0.034950003027915955
1784098589702748200,2.979748046875,8.181000709533691,5.422050476074219,-0.022950001060962677
1784098589712833000,2.9898330078125,8.164950370788574,5.424000263214111,-0.010950000956654549
1784098589722918000,2.99991796875,8.164950370788574,5.422050476074219,-0.022950001060962677
1784098589733002800,3.010002685546875,8.176950454711914,5.416950225830078,-0.022950001060962677
1784098589743087400,3.02008740234375,8.160000801086426,5.404950141906738,-0.025950001552700996
1784098589753172200,3.030172119140625,8.169000625610352,5.416950225830078,-0.028050001710653305
1784098589763257000,3.040257080078125,8.181000709533691,5.413950443267822,-0.031050002202391624
1784098589773342000,3.050342041015625,8.169000625610352,5.413950443267822,-0.019050000235438347
1784098589783426800,3.0604267578125,8.18595027923584,5.410050392150879,-0.037950001657009125
1784098589793511700,3.07051171875,8.18595027923584,5.413950443267822,-0.032999999821186066
1784098589803596500,3.080596435546875,8.181000709533691,5.407050132751465,-0.032999999821186066
1784098589813681400,3.090681396484375,8.181000709533691,5.407050132751465,-0.04500000178813934
1784098589823766000,3.10076611328125,8.200950622558594,5.398050308227539,-0.0499500036239624
1784098589833851000,3.110850830078125,8.181000709533691,5.416950225830078,-0.04305000230669975
1784098589843935700,3.120935791015625,8.212950706481934,5.416950225830078,-0.05205000191926956
1784098589854020600,3.1310205078125,8.193000793457031,5.424000263214111,-0.0499500036239624
1784098589864105500,3.14110546875,8.20995044708252,5.425950050354004,-0.05205000191926956
1784098589874190300,3.1511904296875,8.188950538635254,5.4310503005981445,-0.05505000427365303
1784098589884275000,3.16127490234375,8.200950622558594,5.424000263214111,-0.05205000191926956
1784098589894359800,3.17135986328125,8.208000183105469,5.476950168609619,-0.07905000448226929
1784098589904444700,3.181444580078125,8.193000793457031,5.769000053405762,-0.16905000805854797
1784098589914529500,3.191529541015625,8.098050117492676,4.653000354766846,0.1770000010728836
1784098589924614400,3.201614501953125,8.335050582885742,6.20205020904541,-0.2370000183582306
1784098589934699000,3.211698974609375,7.968000411987305,4.960050106048584,0.0499500036239624
1784098589944784000,3.221783935546875,8.272050857543945,5.452950477600098,-0.0019500000635161996
1784098589954868700,3.23186865234375,8.21505069732666,5.4720001220703125,-0.07095000147819519
1784098589964953600,3.24195361328125,8.074049949645996,5.464950084686279,-0.14295001327991486
1784098589975038500,3.25203857421875,8.1739501953125,5.404950141906738,-0.037950001657009125
1784098589985123300,3.262123291015625,8.169000625610352,5.410050392150879,-0.04305000230669975
1784098589995208000,3.2722080078125,8.145000457763672,5.45805025100708,-0.06195000186562538
1784098590005292800,3.282292724609375,8.164950370788574,5.401950359344482,-0.037950001657009125
1784098590015377700,3.292377685546875,8.169000625610352,5.422050476074219,-0.0499500036239624
1784098590025462500,3.302462646484375,8.1739501953125,5.428950309753418,-0.032999999821186066
1784098590035547400,3.31254736328125,8.184000015258789,5.419050216674805,-0.019050000235438347
1784098590045632000,3.322632080078125,8.181000709533691,5.428950309753418,-0.010950000956654549
1784098590055716900,3.332716796875,8.196000099182129,5.422050476074219,-0.019050000235438347
1784098590065801700,3.3428017578125,8.200950622558594,5.424000263214111,0.009000000543892384
1784098590075886600,3.352886474609375,8.17905044555664,5.424000263214111,-0.016050001606345177
1784098590085971500,3.362971435546875,8.229000091552734,5.410050392150879,-0.004050000105053186
1784098590096056300,3.373056396484375,8.23905086517334,5.350050449371338,-0.037950001657009125
1784098590106141200,3.38314111328125,8.313000679016113,5.674950122833252,0.08595000207424164
1784098590116226000,3.39322607421875,7.630950450897217,5.448000431060791,-0.27000001072883606
1784098590126310700,3.403310546875,8.824950218200684,5.194050312042236,0.17205001413822174
1784098590136395500,3.4133955078125,7.213950157165527,5.461950302124023,-0.1189500093460083
1784098590146480400,3.42348046875,9.397950172424316,4.938000202178955,-0.09300000220537186
1784098590156565200,3.433565185546875,7.104000568389893,5.797050476074219,0.18900001049041748
1784098590166650000,3.443650146484375,8.89995002746582,5.259000301361084,-0.18105000257492065
1784098590176734700,3.453734619140625,7.864950180053711,5.452950477600098,-0.07395000010728836
1784098590186819800,3.46381982421875,7.9800004959106445,5.509950160980225,-0.010950000956654549
1784098590196904400,3.473904541015625,8.365950584411621,5.398050308227539,-0.10500000417232513
1784098590206989300,3.4839892578125,7.9800004959106445,5.509950160980225,-0.009000000543892384
1784098590217074200,3.49407421875,8.260050773620605,5.37600040435791,-0.10200000554323196
1784098590227159000,3.504158935546875,8.134050369262695,5.428950309753418,-0.06405000388622284
1784098590237244000,3.514243896484375,8.17905044555664,5.484000205993652,-0.07605000585317612
1784098590247328500,3.52432861328125,8.101950645446777,5.461950302124023,-0.04005000367760658
1784098590257413400,3.534413330078125,8.326950073242188,5.428950309753418,-0.0880500078201294
1784098590267498200,3.544498291015625,8.044950485229492,5.473950386047363,-0.013950000517070293
1784098590277583000,3.5545830078125,8.314949989318848,5.419050216674805,-0.0880500078201294
1784098590287668000,3.56466796875,8.077950477600098,5.455050468444824,-0.06705000251531601
1784098590297752800,3.5747529296875,8.200950622558594,5.428950309753418,-0.0499500036239624
1784098590307837700,3.584837646484375,8.193000793457031,5.407050132751465,-0.06195000186562538
1784098590317922300,3.59492236328125,8.032950401306152,5.422050476074219,-0.037950001657009125
1784098590328007200,3.605007080078125,8.329950332641602,5.355000019073486,-0.05895000323653221
1784098590338092000,3.615092041015625,8.056950569152832,5.425950050354004,-0.04305000230669975
1784098590348177000,3.625177001953125,8.176950454711914,5.4120001792907715,-0.028050001710653305
1784098590358261800,3.63526171875,8.155050277709961,5.410050392150879,-0.06705000251531601
1784098590368346600,3.6453466796875,8.18595027923584,5.392950057983398,-0.022950001060962677
1784098590378431200,3.65543115234375,8.157000541687012,5.383050441741943,-0.0690000057220459
1784098590388516400,3.665516357421875,8.19795036315918,5.4120001792907715,0.013950000517070293
1784098590398601000,3.67560107421875,8.145000457763672,5.398050308227539,-0.034950003027915955
1784098590408685800,3.685685791015625,8.296050071716309,5.386050224304199,-0.031050002202391624
1784098590418770700,3.695770751953125,8.134050369262695,5.422050476074219,-0.019050000235438347
1784098590428855600,3.70585546875,8.157000541687012,5.407050132751465,-0.010950000956654549
1784098590438940400,3.7159404296875,8.200950622558594,5.410050392150879,0.009000000543892384
1784098590449025300,3.726025390625,8.155050277709961,5.425950050354004,-0.009000000543892384
1784098590459110100,3.736110107421875,8.208000183105469,5.407050132751465,0.004050000105053186
1784098590469194800,3.74619482421875,8.157000541687012,5.419050216674805,-0.025950001552700996
1784098590479279600,3.756279541015625,8.122050285339355,5.424000263214111,0.016050001606345177
1784098590489364500,3.766364501953125,8.17199993133545,5.407050132751465,-0.037950001657009125
1784098590499449300,3.776449462890625,8.124000549316406,5.4310503005981445,-0.021000001579523087
1784098590509534200,3.7865341796875,8.143050193786621,5.428950309753418,-0.025950001552700996
1784098590519619000,3.796619140625,8.134050369262695,5.4310503005981445,-0.031050002202391624
1784098590529704000,3.806703857421875,8.145000457763672,5.443050384521484,-0.05895000323653221
1784098590539788500,3.81678857421875,8.125950813293457,5.443050384521484,-0.04305000230669975
1784098590549873400,3.826873291015625,8.164950370788574,5.440950393676758,-0.06705000251531601
1784098590559958300,3.836958251953125,8.148000717163086,5.448000431060791,-0.06405000388622284
1784098590570043100,3.847043212890625,8.169000625610352,5.437950134277344,-0.08100000023841858
1784098590580128000,3.8571279296875,8.155050277709961,5.455050468444824,-0.08100000023841858
1784098590590212900,3.867212890625,8.1739501953125,5.449950218200684,-0.07905000448226929
1784098590600297500,3.87729736328125,8.157000541687012,5.455050468444824,-0.07395000010728836
1784098590610382300,3.88738232421875,8.181000709533691,5.448000431060791,-0.07095000147819519
1784098590620467200,3.89746728515625,8.145000457763672,5.437950134277344,-0.07095000147819519
1784098590630552000,3.907552001953125,8.17199993133545,5.4340500831604,-0.0690000057220459
1784098590640637000,3.917636962890625,8.160000801086426,5.424000263214111,-0.0690000057220459
1784098590650721800,3.9277216796875,8.155050277709961,5.410050392150879,-0.05505000427365303
1784098590660806400,3.937806396484375,8.145000457763672,5.413950443267822,-0.04500000178813934
1784098590670891300,3.947891357421875,8.148000717163086,5.407050132751465,-0.04005000367760658
1784098590680976100,3.95797607421875,8.148000717163086,5.401950359344482,-0.037950001657009125
1784098590691061000,3.96806103515625,8.140950202941895,5.392950057983398,-0.034950003027915955
1784098590701145900,3.978145751953125,8.140950202941895,5.395050048828125,-0.021000001579523087
1784098590711230700,3.988230712890625,8.136000633239746,5.407050132751465,-0.019050000235438347
1784098590721315600,3.998315673828125,8.148000717163086,5.401950359344482,-0.021000001579523087
1784098590731400400,4.008400390625,8.143050193786621,5.398050308227539,-0.016050001606345177
1784098590741485300,4.0184853515625,8.155050277709961,5.398050308227539,-0.022950001060962677
1784098590751570000,4.02856982421875,8.160000801086426,5.404950141906738,-0.016050001606345177
1784098590761654800,4.03865478515625,8.160000801086426,5.410050392150879,-0.013950000517070293
1784098590771739600,4.04873974609375,8.16195011138916,5.416950225830078,-0.013950000517070293
1784098590781824500,4.058824462890625,8.176950454711914,5.425950050354004,-0.021000001579523087
1784098590791909400,4.068909423828125,8.1739501953125,5.437950134277344,-0.013950000517070293
1784098590801994200,4.078994140625,8.17905044555664,5.4310503005981445,-0.004050000105053186
1784098590812079000,4.0890791015625,8.169000625610352,5.443050384521484,-0.019050000235438347
1784098590822164000,4.0991640625,8.18595027923584,5.44605016708374,-0.021000001579523087
1784098590832248600,4.10924853515625,8.157000541687012,5.449950218200684,-0.022950001060962677
1784098590842333400,4.11933349609375,8.169000625610352,5.443050384521484,-0.034950003027915955
1784098590852418300,4.129418212890625,8.157000541687012,5.44605016708374,-0.031050002202391624
1784098590862503200,4.139503173828125,8.16195011138916,5.428950309753418,-0.07095000147819519
1784098590872588000,4.149588134765625,8.208000183105469,5.44605016708374,0.009000000543892384
1784098590882673000,4.1596728515625,8.160000801086426,5.392950057983398,-0.05700000375509262
1784098590892757800,4.1697578125,8.268000602722168,5.410050392150879,-0.025950001552700996
1784098590902842400,4.17984228515625,7.885050296783447,5.460000038146973,-0.09000000357627869
1784098590912927200,4.18992724609375,8.437950134277344,5.328000068664551,-0.18105000257492065
1784098590923012000,4.20001220703125,7.888950347900391,5.448000431060791,0.013950000517070293
1784098590933097000,4.210096923828125,8.356050491333008,5.386050224304199,-0.08100000023841858
1784098590943181800,4.220181884765625,8.119050025939941,5.449950218200684,-0.12600000202655792
1784098590953266700,4.2302666015625,8.062050819396973,5.416950225830078,-0.013950000517070293
1784098590963351600,4.2403515625,8.176950454711914,5.4310503005981445,-0.11700000613927841
1784098590973436400,4.2504365234375,8.14995002746582,5.424000263214111,-0.10200000554323196
1784098590983521300,4.260521240234375,8.119050025939941,5.4120001792907715,-0.0019500000635161996
1784098590993606000,4.27060595703125,8.164950370788574,5.401950359344482,-0.032999999821186066
1784098591003690800,4.280690673828125,8.13794994354248,5.416950225830078,-0.07605000585317612
1784098591013775600,4.290775634765625,8.122050285339355,5.410050392150879,0
1784098591023860500,4.300860595703125,8.140950202941895,5.419050216674805,-0.04005000367760658
1784098591033945300,4.3109453125,8.101950645446777,5.4310503005981445,-0.019050000235438347
1784098591044030200,4.3210302734375,8.200950622558594,5.413950443267822,-0.0019500000635161996
1784098591054114800,4.33111474609375,8.055000305175781,5.424000263214111,0.0019500000635161996
1784098591064199700,4.34119970703125,8.260050773620605,5.407050132751465,-0.0499500036239624
1784098591074284500,4.351284423828125,8.104949951171875,5.436000347137451,-0.004050000105053186
1784098591084369400,4.361369384765625,8.20995044708252,5.4340500831604,-0.019050000235438347
1784098591094454300,4.371454345703125,8.074049949645996,5.4720001220703125,-0.0070500001311302185
1784098591104539100,4.3815390625,8.181000709533691,5.437950134277344,-0.06195000186562538
1784098591114624000,4.3916240234375,8.18595027923584,5.392950057983398,0.010950000956654549
1784098591124708600,4.40170849609375,8.148000717163086,5.410050392150879,-0.0499500036239624
1784098591134793500,4.41179345703125,8.217000007629395,5.416950225830078,-0.031050002202391624
1784098591144878300,4.42187841796875,8.140950202941895,5.443050384521484,-0.07395000010728836
1784098591154963200,4.431963134765625,8.113950729370117,5.4310503005981445,-0.004050000105053186
1784098591165048000,4.442048095703125,8.204999923706055,5.422050476074219,-0.06405000388622284
1784098591175133000,4.4521328125,8.157000541687012,5.413950443267822,-0.046950001269578934
1784098591185217500,4.462217529296875,8.134050369262695,5.422050476074219,-0.06195000186562538
1784098591195302400,4.472302490234375,8.181000709533691,5.407050132751465,-0.05205000191926956
1784098591205387300,4.48238720703125,8.155050277709961,5.424000263214111,-0.05895000323653221
1784098591215472000,4.49247216796875,8.107049942016602,5.410050392150879,-0.05700000375509262
1784098591225557000,4.502556884765625,8.164950370788574,5.392950057983398,-0.04305000230669975
1784098591235641900,4.512641845703125,8.293950080871582,5.383050441741943,-0.1099500060081482
1784098591245726700,4.522726806640625,7.944000244140625,5.479050159454346,-0.046950001269578934
1784098591255811300,4.532811279296875,8.305950164794922,5.379000186920166,-0.037950001657009125
1784098591265896400,4.542896484375,8.032950401306152,5.479050159454346,-0.08100000023841858
1784098591275981000,4.55298095703125,8.19105052947998,5.400000095367432,-0.08295000344514847
1784098591286066000,4.56306591796875,8.128950119018555,5.407050132751465,-0.016050001606345177
1784098591296150500,4.573150634765625,8.119050025939941,5.413950443267822,-0.06405000388622284
1784098591306235400,4.5832353515625,8.229000091552734,5.395050048828125,-0.05895000323653221
1784098591316320300,4.5933203125,8.086050033569336,5.4340500831604,-0.010950000956654549
1784098591326405000,4.603405029296875,8.200950622558594,5.400000095367432,-0.046950001269578934
1784098591336490000,4.613489990234375,8.122050285339355,5.449950218200684,-0.019050000235438347
1784098591346574800,4.623574951171875,8.181000709533691,5.416950225830078,-0.021000001579523087
1784098591356659700,4.63365966796875,8.124000549316406,5.437950134277344,-0.009000000543892384
1784098591366744300,4.643744384765625,8.17905044555664,5.443050384521484,-0.021000001579523087
1784098591376829200,4.6538291015625,8.136000633239746,5.448000431060791,-0.019050000235438347
1784098591386914000,4.6639140625,8.164950370788574,5.436000347137451,-0.0070500001311302185
1784098591396999000,4.6739990234375,8.155050277709961,5.448000431060791,-0.009000000543892384
1784098591407083800,4.684083740234375,8.164950370788574,5.448000431060791,-0.010950000956654549
1784098591417168600,4.694168701171875,8.1739501953125,5.44605016708374,-0.013950000517070293
1784098591427253200,4.704253173828125,8.157000541687012,5.449950218200684,0.0019500000635161996
1784098591437338000,4.714338134765625,8.176950454711914,5.443050384521484,-0.021000001579523087
1784098591447423000,4.724423095703125,8.176950454711914,5.440950393676758,-0.022950001060962677
1784098591457507800,4.7345078125,8.169000625610352,5.428950309753418,-0.032999999821186066
1784098591467592700,4.7445927734375,8.1739501953125,5.422050476074219,-0.037950001657009125
1784098591477677600,4.754677490234375,8.1670503616333,5.416950225830078,-0.04305000230669975
1784098591487762400,4.764762451171875,8.17199993133545,5.422050476074219,-0.046950001269578934
1784098591497847300,4.774847412109375,8.1670503616333,5.407050132751465,-0.05205000191926956
1784098591507932000,4.784931884765625,8.169000625610352,5.395050048828125,-0.05505000427365303
1784098591518016800,4.795016845703125,8.169000625610352,5.404950141906738,-0.06705000251531601
1784098591528101600,4.8051015625,8.18595027923584,5.398050308227539,-0.06405000388622284
1784098591538186500,4.8151865234375,8.148000717163086,5.401950359344482,-0.06405000388622284
1784098591548271400,4.825271240234375,8.1739501953125,5.395050048828125,-0.07095000147819519
1784098591558356200,4.835356201171875,8.164950370788574,5.401950359344482,-0.08100000023841858
1784098591568440800,4.84544091796875,8.169000625610352,5.407050132751465,-0.07905000448226929
1784098591578525700,4.855525634765625,8.16195011138916,5.410050392150879,-0.06405000388622284
1784098591588610600,4.865610595703125,8.184000015258789,5.410050392150879,-0.0690000057220459
1784098591598695400,4.8756953125,8.16195011138916,5.413950443267822,-0.06195000186562538
1784098591608780300,4.8857802734375,8.184000015258789,5.422050476074219,-0.05205000191926956
1784098591618865200,4.895865234375,8.19105052947998,5.422050476074219,-0.05505000427365303
1784098591628950000,4.905949951171875,8.17905044555664,5.422050476074219,-0.04305000230669975
1784098591639035000,4.916034912109375,8.19105052947998,5.425950050354004,-0.034950003027915955
1784098591649119700,4.92611962890625,8.188950538635254,5.4310503005981445,-0.034950003027915955
1784098591659204600,4.93620458984375,8.17905044555664,5.436000347137451,-0.037950001657009125
1784098591669289500,4.94628955078125,8.19795036315918,5.443050384521484,-0.021000001579523087
1784098591679374300,4.956374267578125,8.18595027923584,5.437950134277344,-0.019050000235438347
1784098591689459000,4.966458984375,8.184000015258789,5.436000347137451,-0.016050001606345177
1784098591699543800,4.976543701171875,8.19795036315918,5.4310503005981445,-0.010950000956654549
1784098591709628700,4.986628662109375,8.17199993133545,5.437950134277344,-0.010950000956654549
1784098591719713500,4.996713623046875,8.188950538635254,5.436000347137451,-0.004050000105053186
1784098591729798400,5.00679833984375,8.176950454711914,5.437950134277344,-0.016050001606345177
1784098591739883300,5.01688330078125,8.193000793457031,5.4340500831604,-0.028050001710653305
1784098591749968100,5.026968017578125,8.181000709533691,5.425950050354004,-0.016050001606345177
1784098591760053000,5.037052978515625,8.19105052947998,5.428950309753418,-0.021000001579523087
1784098591770137600,5.0471376953125,8.17905044555664,5.428950309753418,-0.025950001552700996
1784098591780222500,5.057222412109375,8.188950538635254,5.428950309753418,-0.025950001552700996
1784098591790307300,5.067307373046875,8.17199993133545,5.425950050354004,-0.031050002202391624
1784098591800392200,5.07739208984375,8.196000099182129,5.419050216674805,-0.032999999821186066
1784098591810477000,5.08747705078125,8.188950538635254,5.413950443267822,-0.04500000178813934
1784098591820562000,5.09756201171875,8.176950454711914,5.413950443267822,-0.046950001269578934
1784098591830646800,5.107646728515625,8.188950538635254,5.416950225830078,-0.046950001269578934
1784098591840731600,5.117731689453125,8.17905044555664,5.404950141906738,-0.0499500036239624
1784098591850816300,5.127816162109375,8.196000099182129,5.400000095367432,-0.05205000191926956
1784098591860901000,5.137901123046875,8.176950454711914,5.404950141906738,-0.06195000186562538
1784098591870986000,5.147986083984375,8.20305061340332,5.401950359344482,-0.05505000427365303
1784098591881070800,5.15807080078125,8.176950454711914,5.407050132751465,-0.06705000251531601
1784098591891155700,5.16815576171875,8.200950622558594,5.410050392150879,-0.0690000057220459
1784098591901240600,5.178240478515625,8.184000015258789,5.401950359344482,-0.05700000375509262
1784098591911325400,5.188325439453125,8.193000793457031,5.410050392150879,-0.05895000323653221
1784098591921410300,5.198410400390625,8.196000099182129,5.410050392150879,-0.06705000251531601
1784098591931495200,5.2084951171875,8.196000099182129,5.416950225830078,-0.05895000323653221
1784098591941580000,5.218580078125,8.184000015258789,5.419050216674805,-0.06405000388622284
1784098591951665000,5.228664794921875,8.208000183105469,5.428950309753418,-0.0499500036239624
1784098591961749500,5.23874951171875,8.17905044555664,5.437950134277344,-0.05205000191926956
1784098591971834400,5.24883447265625,8.208000183105469,5.4340500831604,-0.04305000230669975
1784098591981919200,5.258919189453125,8.193000793457031,5.44605016708374,-0.04500000178813934
1784098591992004000,5.269004150390625,8.193000793457031,5.449950218200684,-0.031050002202391624
1784098592002089000,5.2790888671875,8.19105052947998,5.440950393676758,-0.028050001710653305
1784098592012173800,5.289173828125,8.196000099182129,5.437950134277344,-0.025950001552700996
1784098592022258400,5.299258544921875,8.20305061340332,5.449950218200684,-0.019050000235438347
1784098592032343600,5.309343505859375,8.188950538635254,5.440950393676758,-0.021000001579523087
1784098592042428200,5.31942822265625,8.18595027923584,5.4340500831604,-0.010950000956654549
1784098592052513000,5.329512939453125,8.17905044555664,5.437950134277344,-0.019050000235438347
1784098592062598000,5.339597900390625,8.184000015258789,5.4310503005981445,-0.009000000543892384
1784098592072682800,5.349682861328125,8.164950370788574,5.416950225830078,-0.013950000517070293
1784098592082767600,5.359767578125,8.181000709533691,5.416950225830078,-0.016050001606345177
1784098592092852700,5.369852783203125,8.157000541687012,5.413950443267822,-0.019050000235438347
1784098592102937600,5.3799375,8.184000015258789,5.404950141906738,-0.022950001060962677
1784098592113022200,5.390022216796875,8.193000793457031,5.404950141906738,-0.028050001710653305
1784098592123107000,5.400107177734375,8.148000717163086,5.410050392150879,-0.04500000178813934
1784098592133192000,5.41019189453125,8.200950622558594,5.401950359344482,-0.046950001269578934
1784098592143276800,5.42027685546875,8.157000541687012,5.400000095367432,-0.046950001269578934
1784098592153361700,5.430361572265625,8.17199993133545,5.398050308227539,-0.05505000427365303
1784098592163446500,5.440446533203125,8.20995044708252,5.401950359344482,-0.06195000186562538
1784098592173531400,5.450531494140625,8.17199993133545,5.401950359344482,-0.05505000427365303
1784098592183616300,5.4606162109375,8.19105052947998,5.410050392150879,-0.06405000388622284
1784098592193701000,5.470701171875,8.184000015258789,5.410050392150879,-0.0690000057220459
1784098592203786000,5.480785888671875,8.193000793457031,5.422050476074219,-0.05505000427365303
1784098592213870800,5.490870849609375,8.19105052947998,5.422050476074219,-0.06705000251531601
1784098592223955700,5.500955810546875,8.196000099182129,5.424000263214111,-0.06195000186562538
1784098592234040600,5.51104052734375,8.196000099182129,5.4310503005981445,-0.0690000057220459
1784098592244125400,5.52112548828125,8.188950538635254,5.425950050354004,-0.05700000375509262
1784098592254210300,5.531210205078125,8.196000099182129,5.4310503005981445,-0.05700000375509262
1784098592264295200,5.541295166015625,8.18595027923584,5.437950134277344,-0.05205000191926956
1784098592274380000,5.551380126953125,8.18595027923584,5.437950134277344,-0.04500000178813934
1784098592284465000,5.56146484375,8.176950454711914,5.437950134277344,-0.04305000230669975
1784098592294549800,5.5715498046875,8.18595027923584,5.437950134277344,-0.04305000230669975
1784098592304634600,5.581634521484375,8.184000015258789,5.443050384521484,-0.04005000367760658
1784098592314719500,5.591719482421875,8.18595027923584,5.4310503005981445,-0.034950003027915955
1784098592324804400,5.601804443359375,8.169000625610352,5.436000347137451,-0.025950001552700996
1784098592334889000,5.611888916015625,8.181000709533691,5.425950050354004,-0.032999999821186066
1784098592344973800,5.621973876953125,8.1670503616333,5.4340500831604,-0.021000001579523087
1784098592355058700,5.63205859375,8.17905044555664,5.425950050354004,-0.016050001606345177
1784098592365143600,5.6421435546875,8.160000801086426,5.419050216674805,-0.016050001606345177
1784098592375228400,5.652228515625,8.17199993133545,5.419050216674805,-0.016050001606345177
1784098592385313300,5.662313232421875,8.164950370788574,5.424000263214111,-0.016050001606345177
1784098592395398100,5.672398193359375,8.169000625610352,5.413950443267822,-0.009000000543892384
1784098592405483000,5.68248291015625,8.169000625610352,5.413950443267822,-0.019050000235438347
1784098592415568000,5.69256787109375,8.164950370788574,5.419050216674805,-0.010950000956654549
1784098592425652700,5.70265283203125,8.1739501953125,5.410050392150879,-0.021000001579523087
1784098592435737600,5.712737548828125,8.176950454711914,5.407050132751465,-0.031050002202391624
1784098592445822500,5.722822509765625,8.17199993133545,5.404950141906738,-0.04305000230669975
1784098592455907300,5.7329072265625,8.176950454711914,5.410050392150879,-0.046950001269578934
1784098592465992200,5.7429921875,8.184000015258789,5.400000095367432,-0.034950003027915955
1784098592476077000,5.7530771484375,8.17905044555664,5.410050392150879,-0.046950001269578934
1784098592486162000,5.763161865234375,8.188950538635254,5.401950359344482,-0.0499500036239624
1784098592496246800,5.773246826171875,8.181000709533691,5.416950225830078,-0.06405000388622284
1784098592506331600,5.78333154296875,8.188950538635254,5.413950443267822,-0.05700000375509262
1784098592516416300,5.793416259765625,8.17199993133545,5.419050216674805,-0.06705000251531601
1784098592526501000,5.803501220703125,8.19105052947998,5.425950050354004,-0.06195000186562538
1784098592536586200,5.813586181640625,8.181000709533691,5.4340500831604,-0.07395000010728836
1784098592546671000,5.823671142578125,8.176950454711914,5.4340500831604,-0.06405000388622284
1784098592556756000,5.833755859375,8.176950454711914,5.4340500831604,-0.06195000186562538
1784098592566840800,5.8438408203125,8.17199993133545,5.4340500831604,-0.05895000323653221
1784098592576925700,5.85392578125,8.17905044555664,5.437950134277344,-0.05700000375509262
1784098592587010600,5.864010498046875,8.17199993133545,5.443050384521484,-0.05505000427365303
1784098592597095400,5.874095458984375,8.157000541687012,5.437950134277344,-0.05205000191926956
1784098592607180300,5.88418017578125,8.157000541687012,5.436000347137451,-0.04305000230669975
1784098592617265200,5.89426513671875,8.152950286865234,5.440950393676758,-0.037950001657009125
1784098592627350000,5.90435009765625,8.155050277709961,5.428950309753418,-0.031050002202391624
1784098592637435000,5.914434814453125,8.16195011138916,5.424000263214111,-0.032999999821186066
1784098592647519700,5.924519775390625,8.148000717163086,5.428950309753418,-0.025950001552700996
1784098592657604600,5.9346044921875,8.16195011138916,5.413950443267822,-0.028050001710653305
1784098592667689500,5.944689453125,8.143050193786621,5.424000263214111,-0.016050001606345177
1784098592677774000,5.954774169921875,8.16195011138916,5.4120001792907715,-0.016050001606345177
1784098592687859200,5.964859130859375,8.157000541687012,5.413950443267822,-0.019050000235438347
1784098592697944000,5.974944091796875,8.1670503616333,5.410050392150879,-0.022950001060962677
1784098592708029000,5.98502880859375,8.16195011138916,5.407050132751465,-0.022950001060962677
1784098592718113800,5.99511376953125,8.169000625610352,5.400000095367432,-0.025950001552700996
1784098592728198700,6.00519873046875,8.1670503616333,5.410050392150879,-0.028050001710653305
1784098592738283500,6.015283447265625,8.176950454711914,5.407050132751465,-0.025950001552700996
1784098592748368400,6.025368408203125,8.169000625610352,5.413950443267822,-0.028050001710653305
1784098592758453200,6.035453369140625,8.176950454711914,5.413950443267822,-0.034950003027915955
1784098592768538000,6.0455380859375,8.17905044555664,5.416950225830078,-0.037950001657009125
1784098592778623000,6.055623046875,8.181000709533691,5.419050216674805,-0.04305000230669975
1784098592788707800,6.065707763671875,8.181000709533691,5.413950443267822,-0.05505000427365303
1784098592798792700,6.075792724609375,8.176950454711914,5.419050216674805,-0.0499500036239624
1784098592808877600,6.085877685546875,8.17199993133545,5.416950225830078,-0.0499500036239624
1784098592818962400,6.09596240234375,8.1670503616333,5.419050216674805,-0.04500000178813934
1784098592829047300,6.10604736328125,8.17905044555664,5.419050216674805,-0.06195000186562538
1784098592839132200,6.116132080078125,8.157000541687012,5.422050476074219,-0.05700000375509262
1784098592849217000,6.126217041015625,8.17199993133545,5.425950050354004,-0.06195000186562538
1784098592859302000,6.136302001953125,8.157000541687012,5.428950309753418,-0.05205000191926956
1784098592869386800,6.14638671875,8.1670503616333,5.428950309753418,-0.05895000323653221
1784098592879471600,6.1564716796875,8.143050193786621,5.424000263214111,-0.05505000427365303
1784098592889556500,6.166556396484375,8.157000541687012,5.425950050354004,-0.05205000191926956
1784098592899641300,6.176641357421875,8.140950202941895,5.436000347137451,-0.05505000427365303
1784098592909726200,6.186726318359375,8.155050277709961,5.4310503005981445,-0.046950001269578934
1784098592919811000,6.19681103515625,8.145000457763672,5.4340500831604,-0.04500000178813934
1784098592929896000,6.20689599609375,8.14995002746582,5.4340500831604,-0.04500000178813934
1784098592939980800,6.216980712890625,8.148000717163086,5.4310503005981445,-0.046950001269578934
1784098592950065700,6.227065673828125,8.14995002746582,5.428950309753418,-0.034950003027915955
1784098592960150500,6.237150634765625,8.148000717163086,5.425950050354004,-0.032999999821186066
1784098592970235400,6.2472353515625,8.160000801086426,5.424000263214111,-0.031050002202391624
1784098592980320300,6.2573203125,8.16195011138916,5.416950225830078,-0.031050002202391624
1784098592990405000,6.267405029296875,8.155050277709961,5.424000263214111,-0.031050002202391624
1784098593000490000,6.277489990234375,8.169000625610352,5.422050476074219,-0.028050001710653305
1784098593010574800,6.287574951171875,8.157000541687012,5.410050392150879,-0.019050000235438347
1784098593020660000,6.297659912109375,8.1670503616333,5.407050132751465,-0.022950001060962677
1784098593030744800,6.307744873046875,8.1670503616333,5.413950443267822,-0.022950001060962677
1784098593040829700,6.31782958984375,8.17199993133545,5.4120001792907715,-0.031050002202391624
1784098593050914300,6.327914306640625,8.1670503616333,5.410050392150879,-0.028050001710653305
1784098593060999400,6.33799951171875,8.176950454711914,5.407050132751465,-0.032999999821186066
1784098593071084000,6.348083984375,8.16195011138916,5.419050216674805,-0.031050002202391624
1784098593081169200,6.358169189453125,8.176950454711914,5.4120001792907715,-0.037950001657009125
1784098593091254000,6.36825390625,8.160000801086426,5.416950225830078,-0.034950003027915955
1784098593101339000,6.3783388671875,8.169000625610352,5.424000263214111,-0.04305000230669975
1784098593111423700,6.388423828125,8.169000625610352,5.422050476074219,-0.04500000178813934
1784098593121508600,6.398508544921875,8.164950370788574,5.424000263214111,-0.046950001269578934
1784098593131593500,6.408593505859375,8.164950370788574,5.425950050354004,-0.05205000191926956
1784098593141678300,6.41867822265625,8.16195011138916,5.422050476074219,-0.04500000178813934
1784098593151763200,6.42876318359375,8.160000801086426,5.428950309753418,-0.0499500036239624
1784098593161848000,6.43884814453125,8.155050277709961,5.437950134277344,-0.05895000323653221
1784098593171933000,6.448932861328125,8.14995002746582,5.437950134277344,-0.06195000186562538
1784098593182017500,6.459017578125,8.140950202941895,5.4310503005981445,-0.05700000375509262
1784098593192102700,6.4691025390625,8.143050193786621,5.436000347137451,-0.05700000375509262
1784098593202187500,6.4791875,8.148000717163086,5.425950050354004,-0.05205000191926956
1784098593212272400,6.4892724609375,8.148000717163086,5.428950309753418,-0.046950001269578934
1784098593222357200,6.499357177734375,8.145000457763672,5.4310503005981445,-0.0499500036239624
1784098593232442000,6.509442138671875,8.148000717163086,5.4310503005981445,-0.04500000178813934
1784098593242527000,6.51952685546875,8.136000633239746,5.428950309753418,-0.046950001269578934
1784098593252611800,6.52961181640625,8.155050277709961,5.413950443267822,-0.04005000367760658
1784098593262696700,6.53969677734375,8.143050193786621,5.419050216674805,-0.037950001657009125
1784098593272781600,6.549781494140625,8.157000541687012,5.425950050354004,-0.031050002202391624
1784098593282866200,6.5598662109375,8.143050193786621,5.424000263214111,-0.034950003027915955
1784098593292951300,6.569951416015625,8.1670503616333,5.419050216674805,-0.04005000367760658
1784098593303036000,6.580035888671875,8.155050277709961,5.425950050354004,-0.031050002202391624
1784098593313120800,6.590120849609375,8.1670503616333,5.413950443267822,-0.025950001552700996
1784098593323205600,6.60020556640625,8.169000625610352,5.419050216674805,-0.032999999821186066
1784098593333290500,6.61029052734375,8.17199993133545,5.416950225830078,-0.025950001552700996
1784098593343375600,6.620375732421875,8.1739501953125,5.413950443267822,-0.028050001710653305
1784098593353460500,6.63046044921875,8.17905044555664,5.407050132751465,-0.028050001710653305
1784098593363545000,6.640545166015625,8.181000709533691,5.4120001792907715,-0.028050001710653305
1784098593373630200,6.650630126953125,8.169000625610352,5.4120001792907715,-0.021000001579523087
1784098593383715000,6.660715087890625,8.18595027923584,5.413950443267822,-0.032999999821186066
1784098593393800000,6.670800048828125,8.16195011138916,5.413950443267822,-0.032999999821186066
1784098593403884800,6.680884765625,8.17199993133545,5.413950443267822,-0.031050002202391624
1784098593413969700,6.6909697265625,8.157000541687012,5.419050216674805,-0.037950001657009125
1784098593424054500,6.701054443359375,8.164950370788574,5.413950443267822,-0.037950001657009125
1784098593434139400,6.711139404296875,8.152950286865234,5.428950309753418,-0.037950001657009125
1784098593444224300,6.721224365234375,8.18595027923584,5.416950225830078,-0.04500000178813934
1784098593454309000,6.73130908203125,8.125950813293457,5.436000347137451,-0.037950001657009125
1784098593464394000,6.74139404296875,8.164950370788574,5.4310503005981445,-0.05205000191926956
1784098593474478800,6.751478759765625,8.136000633239746,5.4310503005981445,-0.032999999821186066
1784098593484563700,6.761563720703125,8.140950202941895,5.436000347137451,-0.05895000323653221
1784098593494648600,6.771648681640625,8.241000175476074,5.4310503005981445,-0.06705000251531601
1784098593504733400,6.7817333984375,8.076000213623047,5.452950477600098,-0.037950001657009125
1784098593514818300,6.791818359375,8.19795036315918,5.425950050354004,-0.05205000191926956
1784098593524903200,6.801903076171875,8.18595027923584,5.436000347137451,-0.05205000191926956
1784098593534988000,6.811988037109375,8.143050193786621,5.436000347137451,-0.05205000191926956
1784098593545073000,6.822072998046875,8.200950622558594,5.425950050354004,-0.04305000230669975
1784098593555157800,6.83215771484375,8.19795036315918,5.422050476074219,-0.05205000191926956
1784098593565242600,6.84224267578125,8.152950286865234,5.422050476074219,-0.034950003027915955
1784098593575327500,6.852327392578125,8.196000099182129,5.410050392150879,-0.05205000191926956
1784098593585412600,6.86241259765625,8.19795036315918,5.404950141906738,-0.04305000230669975
1784098593595497500,6.87249755859375,8.155050277709961,5.404950141906738,-0.04305000230669975
1784098593605582300,6.882582275390625,8.19105052947998,5.398050308227539,-0.04500000178813934
1784098593615667000,6.8926669921875,8.1739501953125,5.395050048828125,-0.0499500036239624
1784098593625751800,6.902751708984375,8.16195011138916,5.395050048828125,-0.034950003027915955
1784098593635837000,6.9128369140625,8.181000709533691,5.386050224304199,-0.04500000178813934
1784098593645921800,6.922921875,8.1670503616333,5.392950057983398,-0.046950001269578934
1784098593656006700,6.933006591796875,8.148000717163086,5.401950359344482,-0.04500000178813934
1784098593666091500,6.943091552734375,8.164950370788574,5.407050132751465,-0.05205000191926956
1784098593676176400,6.95317626953125,8.160000801086426,5.404950141906738,-0.05205000191926956
1784098593686261200,6.96326123046875,8.143050193786621,5.4120001792907715,-0.05505000427365303
1784098593696346000,6.97334619140625,8.164950370788574,5.4120001792907715,-0.05700000375509262
1784098593706431000,6.983430908203125,8.145000457763672,5.413950443267822,-0.05205000191926956
1784098593716515800,6.993515869140625,8.145000457763672,5.422050476074219,-0.05505000427365303
1784098593726600700,7.0036005859375,8.152950286865234,5.4340500831604,-0.05505000427365303
1784098593736685600,7.013685546875,8.160000801086426,5.440950393676758,-0.0499500036239624
1784098593746770400,7.0237705078125,8.155050277709961,5.440950393676758,-0.04500000178813934
1784098593756855300,7.033855224609375,8.157000541687012,5.44605016708374,-0.04005000367760658
1784098593766940200,7.043940185546875,8.157000541687012,5.455050468444824,-0.028050001710653305
1784098593777025000,7.05402490234375,8.160000801086426,5.45805025100708,-0.028050001710653305
1784098593787110000,7.06410986328125,8.169000625610352,5.452950477600098,-0.013950000517070293
1784098593797194800,7.07419482421875,8.1670503616333,5.448000431060791,0
1784098593807279600,7.084279541015625,8.157000541687012,5.45805025100708,-0.0019500000635161996
1784098593817364500,7.094364501953125,8.164950370788574,5.455050468444824,-0.009000000543892384
1784098593827449300,7.104449462890625,8.16195011138916,5.4310503005981445,0.0019500000635161996
1784098593837534200,7.1145341796875,8.152950286865234,5.440950393676758,0.004050000105053186
1784098593847619000,7.124619140625,8.17199993133545,5.419050216674805,-0.009000000543892384
1784098593857704000,7.134703857421875,8.155050277709961,5.413950443267822,-0.0070500001311302185
1784098593867788800,7.144788818359375,8.1739501953125,5.400000095367432,-0.0019500000635161996
1784098593877873700,7.154873779296875,8.17199993133545,5.404950141906738,-0.021000001579523087
1784098593887958500,7.16495849609375,8.176950454711914,5.401950359344482,-0.019050000235438347
1784098593898043400,7.17504345703125,8.181000709533691,5.395050048828125,-0.028050001710653305
1784098593908128300,7.185128173828125,8.181000709533691,5.398050308227539,-0.031050002202391624
1784098593918213000,7.195213134765625,8.188950538635254,5.38800048828125,-0.04005000367760658
1784098593928298000,7.205298095703125,8.1670503616333,5.400000095367432,-0.028050001710653305
1784098593938382800,7.2153828125,8.193000793457031,5.398050308227539,-0.05895000323653221
1784098593948467700,7.2254677734375,8.1739501953125,5.410050392150879,-0.05205000191926956
1784098593958552600,7.235552490234375,8.160000801086426,5.413950443267822,-0.05700000375509262
1784098593968637400,7.245637451171875,8.1739501953125,5.410050392150879,-0.05505000427365303
1784098593978722300,7.255722412109375,8.14995002746582,5.416950225830078,-0.07605000585317612
1784098593988807200,7.26580712890625,8.160000801086426,5.428950309753418,-0.08100000023841858
1784098593998892000,7.27589208984375,8.134050369262695,5.425950050354004,-0.0880500078201294
1784098594008977000,7.285976806640625,8.143050193786621,5.422050476074219,-0.09000000357627869
1784098594019061800,7.296061767578125,8.131050109863281,5.424000263214111,-0.10005000233650208
1784098594029146600,7.306146728515625,8.136000633239746,5.4310503005981445,-0.11700000613927841
1784098594039231700,7.316231689453125,8.119050025939941,5.4310503005981445,-0.10200000554323196
1784098594049316600,7.326316650390625,8.128950119018555,5.4310503005981445,-0.10200000554323196
1784098594059401500,7.3364013671875,8.136000633239746,5.4340500831604,-0.10200000554323196
1784098594069486300,7.346486328125,8.119050025939941,5.437950134277344,-0.10200000554323196
1784098594079571200,7.3565712890625,8.155050277709961,5.437950134277344,-0.08100000023841858
1784098594089656000,7.366656005859375,8.140950202941895,5.44605016708374,-0.08595000207424164
1784098594099741000,7.376740966796875,8.148000717163086,5.440950393676758,-0.06405000388622284
1784098594109825800,7.38682568359375,8.1739501953125,5.4340500831604,-0.028050001710653305
1784098594119910700,7.39691064453125,8.152950286865234,5.424000263214111,-0.025950001552700996
1784098594129995500,7.40699560546875,8.169000625610352,5.425950050354004,-0.010950000956654549
1784098594140080400,7.417080322265625,8.18595027923584,5.410050392150879,0.022950001060962677
1784098594150165200,7.427165283203125,8.1739501953125,5.407050132751465,0.046950001269578934
1784098594160250000,7.43725,8.188950538635254,5.404950141906738,0.06405000388622284
1784098594170335000,7.4473349609375,8.152950286865234,5.424000263214111,-0.019050000235438347
1784098594180419800,7.457419921875,8.181000709533691,5.395050048828125,-0.021000001579523087
1784098594190504700,7.467504638671875,8.193000793457031,5.398050308227539,0.10200000554323196
1784098594200589600,7.477589599609375,8.176950454711914,5.401950359344482,0.12600000202655792
1784098594210674400,7.48767431640625,8.16195011138916,5.413950443267822,0.010950000956654549
1784098594220759300,7.49775927734375,8.181000709533691,5.410050392150879,0.028050001710653305
1784098594230844200,7.50784423828125,8.17199993133545,5.404950141906738,0.07605000585317612
1784098594240929000,7.517928955078125,8.193000793457031,5.401950359344482,0.016050001606345177
1784098594251014100,7.52801416015625,8.17905044555664,5.4120001792907715,-0.021000001579523087
1784098594261099000,7.53809912109375,8.17199993133545,5.416950225830078,0.0070500001311302185
1784098594271184000,7.548183837890625,8.14995002746582,5.413950443267822,-0.021000001579523087
1784098594281268500,7.5582685546875,8.19105052947998,5.410050392150879,-0.0499500036239624
1784098594291353600,7.568353515625,8.152950286865234,5.4120001792907715,-0.046950001269578934
1784098594301438500,7.5784384765625,8.181000709533691,5.416950225830078,-0.06195000186562538
1784098594311523300,7.5885234375,8.16195011138916,5.416950225830078,-0.07905000448226929
1784098594321608200,7.598608154296875,8.152950286865234,5.428950309753418,-0.10695000737905502
1784098594331693000,7.608693115234375,8.14995002746582,5.4310503005981445,-0.1380000114440918
1784098594341778000,7.61877783203125,8.145000457763672,5.419050216674805,-0.11400000751018524
1784098594351862800,7.62886279296875,8.155050277709961,5.419050216674805,-0.14100000262260437
1784098594361947600,7.63894775390625,8.143050193786621,5.416950225830078,-0.14100000262260437
1784098594372032300,7.6490322265625,8.110050201416016,5.4310503005981445,-0.10005000233650208
1784098594382117000,7.6591171875,8.1739501953125,5.413950443267822,-0.13095000386238098
1784098594392202200,7.6692021484375,8.134050369262695,5.416950225830078,-0.16695000231266022
1784098594402286800,7.679286865234375,8.107049942016602,5.440950393676758,-0.11205000430345535
1784098594412372000,7.6893720703125,8.140950202941895,5.437950134277344,-0.05700000375509262
1784098594422456800,7.699456787109375,8.128950119018555,5.419050216674805,-0.1099500060081482
1784098594432541400,7.70954150390625,8.112000465393066,5.460000038146973,-0.10200000554323196
1784098594442626600,7.71962646484375,8.104949951171875,5.44605016708374,-0.034950003027915955
1784098594452711200,7.729711181640625,8.088000297546387,5.469000339508057,-0.05700000375509262
1784098594462796300,7.73979638671875,8.148000717163086,5.443050384521484,-0.06405000388622284
1784098594472881200,7.749881103515625,8.095050811767578,5.467050075531006,0.010950000956654549
1784098594482966000,7.759966064453125,8.125950813293457,5.443050384521484,0.0019500000635161996
1784098594493051000,7.77005078125,8.13794994354248,5.469000339508057,-0.009000000543892384
1784098594503135700,7.7801357421875,8.110050201416016,5.45805025100708,0.037950001657009125
1784098594513220600,7.790220703125,8.14995002746582,5.455050468444824,0.04500000178813934
1784098594523305500,7.800305419921875,8.134050369262695,5.440950393676758,0.032999999821186066
1784098594533390300,7.810390380859375,8.16195011138916,5.428950309753418,0.0499500036239624
1784098594543475200,7.82047509765625,8.152950286865234,5.4310503005981445,0.046950001269578934
1784098594553560000,7.83056005859375,8.1739501953125,5.398050308227539,0.037950001657009125
1784098594563645000,7.84064501953125,8.19105052947998,5.4120001792907715,0.032999999821186066
1784098594573729800,7.850729736328125,8.184000015258789,5.383050441741943,0.031050002202391624
1784098594583814700,7.860814697265625,8.208000183105469,5.3710503578186035,-0.0019500000635161996
1784098594593899500,7.8708994140625,8.22195053100586,5.3710503578186035,0.0019500000635161996
1784098594603984400,7.880984375,8.20995044708252,5.344950199127197,-0.031050002202391624
1784098594614069200,7.8910693359375,8.232000350952148,5.37600040435791,-0.025950001552700996
1784098594624154000,7.901154052734375,8.22705078125,5.343000411987305,-0.06195000186562538
1784098594634239000,7.911239013671875,8.17199993133545,5.359050273895264,-0.06195000186562538
1784098594644323800,7.92132373046875,8.21505069732666,5.355000019073486,-0.07395000010728836
1784098594654408700,7.93140869140625,8.1670503616333,5.368950366973877,-0.0880500078201294
1784098594664493600,7.94149365234375,8.1670503616333,5.380950450897217,-0.10200000554323196
1784098594674578700,7.95157861328125,8.124000549316406,5.392950057983398,-0.09795000404119492
1784098594684663300,7.961663330078125,8.122050285339355,5.400000095367432,-0.10200000554323196
1784098594694748200,7.971748046875,8.100000381469727,5.419050216674805,-0.1189500093460083
1784098594704833300,7.981833251953125,8.104949951171875,5.428950309753418,-0.11700000613927841
1784098594714918100,7.991918212890625,8.080950736999512,5.4310503005981445,-0.11400000751018524
1784098594725002800,8.002002685546875,8.089950561523438,5.448000431060791,-0.10695000737905502
1784098594735087600,8.012087646484375,8.083050727844238,5.455050468444824,-0.09000000357627869
1784098594745172500,8.02217236328125,8.095050811767578,5.469000339508057,-0.08595000207424164
1784098594755257300,8.03225732421875,8.100000381469727,5.473950386047363,-0.08595000207424164
1784098594765342200,8.04234228515625,8.107049942016602,5.479050159454346,-0.07095000147819519
1784098594775427000,8.052427001953125,8.124000549316406,5.484000205993652,-0.04500000178813934
1784098594785512000,8.062511962890625,8.128950119018555,5.488950252532959,-0.034950003027915955
1784098594795596800,8.0725966796875,8.143050193786621,5.496000289916992,-0.0070500001311302185
1784098594805681700,8.082681640625,8.157000541687012,5.4810004234313965,0
1784098594815766500,8.0927666015625,8.17199993133545,5.485950469970703,0.021000001579523087
1784098594825851400,8.102851318359376,8.1670503616333,5.479050159454346,0.037950001657009125
1784098594835936300,8.112936279296875,8.17905044555664,5.467050075531006,0.04500000178813934
1784098594846021000,8.123021240234374,8.1670503616333,5.45805025100708,0.0499500036239624
1784098594856106000,8.13310595703125,8.188950538635254,5.437950134277344,0.0499500036239624
1784098594866190800,8.14319091796875,8.17905044555664,5.419050216674805,0.046950001269578934
1784098594876275700,8.153275634765626,8.193000793457031,5.400000095367432,0.04305000230669975
1784098594886360600,8.163360595703125,8.188950538635254,5.386050224304199,0.016050001606345177
1784098594896445400,8.173445556640624,8.188950538635254,5.368950366973877,0.0070500001311302185
1784098594906530600,8.183530517578125,8.184000015258789,5.3620500564575195,-0.016050001606345177
1784098594916615400,8.193615478515625,8.19105052947998,5.344950199127197,-0.04500000178813934
1784098594926700300,8.2037001953125,8.169000625610352,5.335050106048584,-0.06405000388622284
1784098594936785200,8.21378515625,8.17199993133545,5.332950115203857,-0.07905000448226929
1784098594946870000,8.2238701171875,8.1739501953125,5.343000411987305,-0.09000000357627869
1784098594956955000,8.233954833984376,8.157000541687012,5.340000152587891,-0.09495000541210175
1784098594967039700,8.244039794921875,8.122050285339355,5.36400032043457,-0.10005000233650208
1784098594977124600,8.25412451171875,8.145000457763672,5.368950366973877,-0.10500000417232513
1784098594987209500,8.26420947265625,8.124000549316406,5.383050441741943,-0.1189500093460083
1784098594997294300,8.27429443359375,8.134050369262695,5.401950359344482,-0.09495000541210175
1784098595007379200,8.284379150390626,8.152950286865234,5.424000263214111,-0.10200000554323196
1784098595017464000,8.294464111328125,8.128950119018555,5.443050384521484,-0.10005000233650208
1784098595027549000,8.304548828125,8.14995002746582,5.449950218200684,-0.08595000207424164
1784098595037633800,8.3146337890625,8.16195011138916,5.452950477600098,-0.07605000585317612
1784098595047718700,8.32471875,8.14995002746582,5.464950084686279,-0.08100000023841858
1784098595057803500,8.334803466796876,8.160000801086426,5.473950386047363,-0.06705000251531601
1784098595067888400,8.344888427734375,8.17199993133545,5.473950386047363,-0.06195000186562538
1784098595077973200,8.35497314453125,8.131050109863281,5.469000339508057,-0.05895000323653221
1784098595088058000,8.36505810546875,8.164950370788574,5.469000339508057,-0.04005000367760658
1784098595098142700,8.375142822265625,8.140950202941895,5.469000339508057,-0.031050002202391624
1784098595108227600,8.3852275390625,8.136000633239746,5.452950477600098,-0.019050000235438347
1784098595118312400,8.3953125,8.134050369262695,5.452950477600098,-0.009000000543892384
1784098595128397300,8.405397216796874,8.134050369262695,5.44605016708374,0.004050000105053186
1784098595138482400,8.415482421875,8.119050025939941,5.436000347137451,0.022950001060962677
1784098595148567000,8.425567138671875,8.125950813293457,5.4310503005981445,0.028050001710653305
1784098595158652000,8.43565185546875,8.125950813293457,5.419050216674805,0.021000001579523087
1784098595168736800,8.44573681640625,8.107049942016602,5.416950225830078,0.037950001657009125
1784098595178821600,8.455821533203125,8.119050025939941,5.407050132751465,0.037950001657009125
1784098595188906500,8.465906494140626,8.134050369262695,5.404950141906738,0.022950001060962677
1784098595198991400,8.475991455078125,8.128950119018555,5.4120001792907715,0.0499500036239624
1784098595209076200,8.486076171875,8.143050193786621,5.400000095367432,0.0499500036239624
1784098595219161000,8.4961611328125,8.113950729370117,5.419050216674805,0.037950001657009125
1784098595229246000,8.506245849609375,8.136000633239746,5.422050476074219,0.013950000517070293
1784098595239330800,8.516330810546876,8.155050277709961,5.4120001792907715,0.016050001606345177
1784098595249415700,8.526415771484375,8.119050025939941,5.424000263214111,-0.009000000543892384
1784098595259500500,8.53650048828125,8.164950370788574,5.401950359344482,-0.032999999821186066
1784098595269585400,8.54658544921875,8.13794994354248,5.416950225830078,-0.0499500036239624
1784098595279670300,8.556670166015625,8.17199993133545,5.401950359344482,-0.08295000344514847
1784098595289755100,8.566755126953124,8.188950538635254,5.407050132751465,-0.12405000627040863
1784098595299840000,8.576840087890625,8.17905044555664,5.38800048828125,-0.13095000386238098
1784098595309924900,8.5869248046875,8.184000015258789,5.389950275421143,-0.15300001204013824
1784098595320009700,8.597009765625,8.19795036315918,5.386050224304199,-0.17400000989437103
1784098595330094600,8.607094482421875,8.193000793457031,5.395050048828125,-0.17205001413822174
1784098595340179500,8.617179443359374,8.217000007629395,5.386050224304199,-0.17400000989437103
1784098595350264300,8.627264404296875,8.200950622558594,5.400000095367432,-0.16695000231266022
1784098595360349200,8.63734912109375,8.208000183105469,5.404950141906738,-0.14595000445842743
1784098595370434000,8.64743408203125,8.184000015258789,5.422050476074219,-0.14595000445842743
1784098595380519000,8.657518798828125,8.193000793457031,5.422050476074219,-0.1290000081062317
1784098595390603800,8.667603759765624,8.18595027923584,5.428950309753418,-0.11205000430345535
1784098595400688600,8.677688720703125,8.1739501953125,5.4310503005981445,-0.07605000585317612
1784098595410773500,8.6877734375,8.164950370788574,5.443050384521484,-0.06705000251531601
1784098595420858400,8.6978583984375,8.125950813293457,5.437950134277344,-0.04005000367760658
1784098595430943200,8.707943115234375,8.1670503616333,5.436000347137451,-0.013950000517070293
1784098595441028000,8.718028076171874,8.110050201416016,5.440950393676758,0.013950000517070293
1784098595451113000,8.728113037109376,8.124000549316406,5.436000347137451,0.034950003027915955
1784098595461197800,8.73819775390625,8.104949951171875,5.449950218200684,0.05700000375509262
1784098595471282700,8.74828271484375,8.104949951171875,5.44605016708374,0.0880500078201294
1784098595481367600,8.758367431640625,8.088000297546387,5.452950477600098,0.09300000220537186
1784098595491452400,8.768452392578125,8.107049942016602,5.440950393676758,0.10500000417232513
1784098595501537300,8.778537353515626,8.086050033569336,5.452950477600098,0.11205000430345535
1784098595511622100,8.7886220703125,8.086050033569336,5.44605016708374,0.10500000417232513
1784098595521707000,8.79870703125,8.092950820922852,5.443050384521484,0.09795000404119492
1784098595531792000,8.8087919921875,8.083050727844238,5.44605016708374,0.08295000344514847
1784098595541876700,8.818876708984375,8.089950561523438,5.424000263214111,0.06195000186562538
1784098595551961600,8.828961669921876,8.113950729370117,5.422050476074219,0.037950001657009125
1784098595562046500,8.83904638671875,8.116950035095215,5.416950225830078,0.021000001579523087
1784098595572131300,8.84913134765625,8.125950813293457,5.410050392150879,-0.016050001606345177
1784098595582216000,8.8592158203125,8.143050193786621,5.401950359344482,-0.046950001269578934
1784098595592300800,8.86930078125,8.155050277709961,5.395050048828125,-0.07605000585317612
1784098595602386000,8.879385986328124,8.181000709533691,5.395050048828125,-0.10005000233650208
1784098595612470800,8.889470703125,8.169000625610352,5.389950275421143,-0.12600000202655792
1784098595622555400,8.899555419921874,8.208000183105469,5.386050224304199,-0.15000000596046448
1784098595632640500,8.909640625,8.193000793457031,5.389950275421143,-0.1579500138759613
1784098595642725400,8.919725341796875,8.217000007629395,5.386050224304199,-0.18105000257492065
1784098595652810000,8.92981005859375,8.20305061340332,5.389950275421143,-0.19095000624656677
1784098595662894800,8.939894775390625,8.245950698852539,5.38800048828125,-0.1960500031709671
1784098595672980000,8.94997998046875,8.212950706481934,5.392950057983398,-0.19305001199245453
1784098595683064600,8.960064697265626,8.236050605773926,5.404950141906738,-0.18105000257492065
1784098595693149400,8.9701494140625,8.224050521850586,5.404950141906738,-0.16695000231266022
1784098595703234300,8.980234375,8.212950706481934,5.413950443267822,-0.1579500138759613
1784098595713319200,8.990319091796875,8.196000099182129,5.422050476074219,-0.12600000202655792
1784098595723404000,9.000404052734375,8.193000793457031,5.428950309753418,-0.10200000554323196
1784098595733489000,9.010489013671876,8.181000709533691,5.425950050354004,-0.07905000448226929
1784098595743573800,9.02057373046875,8.152950286865234,5.4310503005981445,-0.037950001657009125
1784098595753658600,9.03065869140625,8.134050369262695,5.443050384521484,-0.004050000105053186
1784098595763743500,9.040743408203125,8.128950119018555,5.4340500831604,0.021000001579523087
1784098595773828400,9.050828369140625,8.101950645446777,5.449950218200684,0.05205000191926956
1784098595783913200,9.060913330078124,8.100000381469727,5.448000431060791,0.07395000010728836
1784098595793998000,9.070998046875,8.116950035095215,5.428950309753418,0.10200000554323196
1784098595804083000,9.0810830078125,8.039999961853027,5.476950168609619,0.1290000081062317
1784098595814167800,9.091167724609376,8.152950286865234,5.425950050354004,0.046950001269578934
1784098595824252700,9.101252685546875,7.972950458526611,5.4910502433776855,0.06705000251531601
1784098595834337500,9.111337646484374,8.119050025939941,5.449950218200684,0.1099500060081482
1784098595844422400,9.12142236328125,8.077950477600098,5.437950134277344,0.09495000541210175
1784098595854507300,9.13150732421875,8.122050285339355,5.428950309753418,0.08595000207424164
1784098595864592100,9.141592041015626,8.119050025939941,5.424000263214111,0.05205000191926956
1784098595874676700,9.1516767578125,8.131050109863281,5.425950050354004,0.034950003027915955
1784098595884761900,9.161761962890624,8.145000457763672,5.419050216674805,0.04005000367760658
1784098595894846500,9.171846435546875,8.125950813293457,5.419050216674805,-0.037950001657009125
1784098595904931300,9.181931396484375,8.17199993133545,5.400000095367432,-0.04305000230669975
1784098595915016200,9.19201611328125,8.14995002746582,5.401950359344482,-0.04305000230669975
1784098595925101000,9.20210107421875,8.19105052947998,5.395050048828125,-0.10200000554323196
1784098595935186000,9.21218603515625,8.181000709533691,5.392950057983398,-0.11205000430345535
1784098595945270800,9.222270751953126,8.20995044708252,5.383050441741943,-0.10695000737905502
1784098595955355600,9.232355712890625,8.19795036315918,5.38800048828125,-0.14100000262260437
1784098595965440500,9.2424404296875,8.21505069732666,5.395050048828125,-0.1579500138759613
1784098595975525600,9.252525634765625,8.220000267028809,5.383050441741943,-0.1360500007867813
1784098595985610500,9.262610595703125,8.20305061340332,5.398050308227539,-0.15495000779628754
1784098595995695400,9.2726953125,8.21505069732666,5.400000095367432,-0.16200000047683716
1784098596005780000,9.282780029296875,8.220000267028809,5.404950141906738,-0.14100000262260437
1784098596015865000,9.292864990234374,8.196000099182129,5.413950443267822,-0.1380000114440918
1784098596025949700,9.30294970703125,8.20305061340332,5.422050476074219,-0.1380000114440918
1784098596036034600,9.31303466796875,8.1739501953125,5.422050476074219,-0.1099500060081482
1784098596046119400,9.323119384765626,8.181000709533691,5.416950225830078,-0.09000000357627869
1784098596056204300,9.333204345703125,8.152950286865234,5.4310503005981445,-0.08595000207424164
1784098596066289200,9.3432890625,8.152950286865234,5.4340500831604,-0.046950001269578934
1784098596076374000,9.3533740234375,8.131050109863281,5.437950134277344,-0.016050001606345177
1784098596086459000,9.363458984375,8.131050109863281,5.436000347137451,-0.010950000956654549
1784098596096543700,9.373543701171876,8.112000465393066,5.44605016708374,0.013950000517070293
1784098596106628600,9.383628662109375,8.124000549316406,5.45805025100708,0.04005000367760658
1784098596116713500,9.39371337890625,8.110050201416016,5.455050468444824,0.046950001269578934
1784098596126798300,9.40379833984375,8.092950820922852,5.443050384521484,0.05895000323653221
1784098596136883200,9.41388330078125,8.100000381469727,5.448000431060791,0.06705000251531601
1784098596146968000,9.423968017578124,8.101950645446777,5.437950134277344,0.0690000057220459
1784098596157053000,9.434052978515625,8.083050727844238,5.436000347137451,0.05895000323653221
1784098596167137800,9.4441376953125,8.089950561523438,5.424000263214111,0.046950001269578934
1784098596177222700,9.45422265625,8.086050033569336,5.410050392150879,0.046950001269578934
1784098596187307500,9.4643076171875,8.077950477600098,5.400000095367432,0.046950001269578934
1784098596197392400,9.474392333984374,8.119050025939941,5.386050224304199,0.031050002202391624
1784098596207477200,9.484477294921875,8.095050811767578,5.38800048828125,0.019050000235438347
1784098596217561900,9.494561767578125,8.136000633239746,5.374050140380859,0
1784098596227646700,9.504646728515626,8.13794994354248,5.386050224304199,-0.010950000956654549
1784098596237731800,9.51473193359375,8.14995002746582,5.38800048828125,-0.028050001710653305
1784098596247816400,9.52481640625,8.17905044555664,5.389950275421143,-0.032999999821186066
1784098596257901300,9.5349013671875,8.18595027923584,5.407050132751465,-0.05505000427365303
1784098596267986200,9.544986083984375,8.19795036315918,5.419050216674805,-0.07395000010728836
1784098596278071000,9.555071044921876,8.17905044555664,5.416950225830078,-0.08595000207424164
1784098596288156000,9.565156005859375,8.20305061340332,5.428950309753418,-0.10695000737905502
1784098596298240800,9.57524072265625,8.176950454711914,5.437950134277344,-0.12195000797510147
1784098596308325600,9.58532568359375,8.17905044555664,5.443050384521484,-0.12405000627040863
1784098596318410500,9.595410400390625,8.176950454711914,5.448000431060791,-0.14595000445842743
1784098596328495400,9.605495361328124,8.17199993133545,5.440950393676758,-0.15000000596046448
1784098596338580200,9.615580322265625,8.169000625610352,5.448000431060791,-0.14595000445842743
1784098596348665000,9.6256650390625,8.18595027923584,5.443050384521484,-0.15495000779628754
1784098596358750000,9.63575,8.1670503616333,5.440950393676758,-0.14100000262260437
1784098596368834800,9.645834716796875,8.184000015258789,5.45805025100708,-0.11400000751018524
1784098596378919400,9.65591943359375,8.169000625610352,5.452950477600098,-0.11400000751018524
1784098596389004500,9.666004638671875,8.160000801086426,5.467050075531006,-0.09495000541210175
1784098596399089200,9.676089111328125,8.14995002746582,5.467050075531006,-0.07905000448226929
1784098596409174000,9.686174072265626,8.143050193786621,5.45805025100708,-0.06195000186562538
1784098596419259000,9.6962587890625,8.128950119018555,5.440950393676758,-0.04005000367760658
1784098596429343700,9.70634375,8.152950286865234,5.424000263214111,-0.019050000235438347
1784098596439428600,9.7164287109375,8.143050193786621,5.428950309753418,-0.016050001606345177
1784098596449513500,9.726513427734375,8.131050109863281,5.404950141906738,-0.0019500000635161996
1784098596459598300,9.736598388671876,8.136000633239746,5.398050308227539,0.016050001606345177
1784098596469683200,9.74668310546875,8.140950202941895,5.38800048828125,0.028050001710653305
1784098596479768000,9.75676806640625,8.143050193786621,5.37600040435791,0.021000001579523087
1784098596489853000,9.76685302734375,8.148000717163086,5.386050224304199,0.04305000230669975
1784098596499937500,9.7769375,8.157000541687012,5.367000102996826,0.032999999821186066
1784098596510022400,9.7870224609375,8.1739501953125,5.379000186920166,0.028050001710653305
1784098596520107500,9.797107421875,8.157000541687012,5.380950450897217,0.022950001060962677
1784098596530192100,9.807192138671875,8.17905044555664,5.383050441741943,0.021000001579523087
1784098596540277000,9.817277099609376,8.134050369262695,5.400000095367432,0.022950001060962677
1784098596550361900,9.82736181640625,8.212950706481934,5.4120001792907715,0.0019500000635161996
1784098596560446700,9.83744677734375,8.148000717163086,5.392950057983398,0
1784098596570531600,9.847531494140625,8.176950454711914,5.4340500831604,0.0019500000635161996
1784098596580616400,9.857616455078125,8.20995044708252,5.413950443267822,-0.016050001606345177
1784098596590701300,9.867701416015626,8.134050369262695,5.4310503005981445,-0.032999999821186066
1784098596600786200,9.8777861328125,8.176950454711914,5.424000263214111,-0.032999999821186066
1784098596610871000,9.88787109375,8.134050369262695,5.416950225830078,-0.046950001269578934
1784098596620956000,9.897955810546875,8.155050277709961,5.436000347137451,-0.07395000010728836
1784098596631040800,9.908040771484375,8.164950370788574,5.449950218200684,-0.0690000057220459
1784098596641125600,9.918125732421874,8.136000633239746,5.416950225830078,-0.0690000057220459
1784098596651210500,9.92821044921875,8.157000541687012,5.455050468444824,-0.08100000023841858
1784098596661295400,9.93829541015625,8.155050277709961,5.436000347137451,-0.08295000344514847
1784098596671380200,9.948380126953126,8.128950119018555,5.467050075531006,-0.10005000233650208
1784098596681465000,9.958465087890625,8.148000717163086,5.45805025100708,-0.10695000737905502
1784098596691550000,9.968550048828124,8.113950729370117,5.440950393676758,-0.0880500078201294
1784098596701634800,9.978634765625,8.1670503616333,5.449950218200684,-0.09000000357627869
1784098596711719400,9.988719482421875,8.155050277709961,5.4340500831604,-0.09795000404119492
1784098596721804500,9.998804443359376,8.16195011138916,5.485950469970703,-0.06195000186562538
1784098596731889200,10.00888916015625,8.19105052947998,5.4340500831604,-0.0880500078201294
1784098596741974000,10.01897412109375,8.092950820922852,5.428950309753418,-0.05700000375509262
1784098596752059000,10.029058837890625,8.204999923706055,5.419050216674805,-0.0499500036239624
1784098596762143700,10.039143798828125,8.131050109863281,5.413950443267822,-0.06705000251531601
1784098596772228600,10.049228515625,8.152950286865234,5.413950443267822,-0.05205000191926956
1784098596782313500,10.0593134765625,8.131050109863281,5.416950225830078,-0.032999999821186066
1784098596792398300,10.0693984375,8.125950813293457,5.3710503578186035,-0.016050001606345177
1784098596802483200,10.079483154296875,8.134050369262695,5.398050308227539,-0.0070500001311302185
1784098596812568000,10.089568115234375,8.184000015258789,5.3520002365112305,-0.022950001060962677
1784098596822653000,10.09965283203125,8.098050117492676,5.404950141906738,0.010950000956654549
1784098596832737800,10.10973779296875,8.204999923706055,5.374050140380859,0.013950000517070293
1784098596842822700,10.11982275390625,8.044950485229492,5.36400032043457,-0.009000000543892384
1784098596852907500,10.129907470703126,8.196000099182129,5.392950057983398,0.028050001710653305
1784098596862992100,10.1399921875,8.169000625610352,5.398050308227539,-0.0070500001311302185
1784098596873077000,10.150076904296874,8.14995002746582,5.398050308227539,-0.009000000543892384
1784098596883161900,10.160161865234375,8.160000801086426,5.419050216674805,0.013950000517070293
1784098596893246700,10.170246826171875,8.152950286865234,5.425950050354004,-0.0019500000635161996
1784098596903331600,10.18033154296875,8.196000099182129,5.422050476074219,-0.016050001606345177
1784098596913416400,10.19041650390625,8.19105052947998,5.440950393676758,-0.04005000367760658
1784098596923501300,10.200501220703124,8.1670503616333,5.4340500831604,-0.028050001710653305
1784098596933586200,10.210586181640625,8.160000801086426,5.452950477600098,-0.034950003027915955
1784098596943671000,10.220671142578125,8.17905044555664,5.44605016708374,-0.04305000230669975
1784098596953756000,10.230755859375,8.148000717163086,5.460000038146973,-0.05505000427365303
1784098596963840800,10.2408408203125,8.19105052947998,5.452950477600098,-0.07095000147819519
1784098596973925400,10.25092529296875,8.128950119018555,5.452950477600098,-0.07095000147819519
1784098596984010200,10.26101025390625,8.143050193786621,5.448000431060791,-0.06195000186562538
1784098596994095000,10.27109521484375,8.13794994354248,5.45805025100708,-0.07395000010728836
1784098597004180000,10.281179931640626,8.148000717163086,5.437950134277344,-0.07095000147819519
1784098597014264800,10.291264892578125,8.116950035095215,5.443050384521484,-0.06195000186562538
1784098597024349700,10.301349609375,8.157000541687012,5.425950050354004,-0.07095000147819519
1784098597034434300,10.311434326171875,8.134050369262695,5.419050216674805,-0.06405000388622284
1784098597044519200,10.321519287109375,8.13794994354248,5.428950309753418,-0.0690000057220459
1784098597054604000,10.33160400390625,8.143050193786621,5.413950443267822,-0.07095000147819519
1784098597064689000,10.34168896484375,8.160000801086426,5.407050132751465,-0.05895000323653221
1784098597074773800,10.351773681640625,8.152950286865234,5.398050308227539,-0.05895000323653221
1784098597084858600,10.361858642578126,8.145000457763672,5.386050224304199,-0.04500000178813934
1784098597094943500,10.371943603515625,8.136000633239746,5.398050308227539,-0.05700000375509262
1784098597105028400,10.3820283203125,8.17199993133545,5.401950359344482,-0.04305000230669975
1784098597115113200,10.39211328125,8.140950202941895,5.401950359344482,-0.032999999821186066
1784098597125198000,10.402197998046875,8.145000457763672,5.410050392150879,-0.04305000230669975
1784098597135283000,10.412282958984376,8.145000457763672,5.401950359344482,-0.013950000517070293
1784098597145367800,10.422367919921875,8.155050277709961,5.4120001792907715,-0.010950000956654549
1784098597155452700,10.43245263671875,8.145000457763672,5.389950275421143,-0.028050001710653305
1784098597165537300,10.442537353515625,8.160000801086426,5.401950359344482,0.004050000105053186
1784098597175622400,10.452622314453125,8.1739501953125,5.400000095367432,-0.010950000956654549
1784098597185707000,10.46270703125,8.14995002746582,5.401950359344482,-0.016050001606345177
1784098597195792000,10.4727919921875,8.152950286865234,5.436000347137451,-0.021000001579523087
1784098597205876700,10.482876708984374,8.164950370788574,5.413950443267822,-0.010950000956654549
1784098597215961600,10.492961669921876,8.152950286865234,5.428950309753418,-0.034950003027915955
1784098597226046500,10.50304638671875,8.19105052947998,5.428950309753418,-0.010950000956654549
1784098597236131300,10.51313134765625,8.160000801086426,5.424000263214111,-0.021000001579523087
1784098597246216000,10.5232158203125,8.169000625610352,5.440950393676758,-0.031050002202391624
1784098597256300800,10.53330078125,8.17905044555664,5.448000431060791,-0.034950003027915955
1784098597266386000,10.543385986328126,8.155050277709961,5.44605016708374,-0.032999999821186066
1784098597276470500,10.553470458984375,8.169000625610352,5.455050468444824,-0.046950001269578934
1784098597286555400,10.563555419921874,8.169000625610352,5.449950218200684,-0.04500000178813934
1784098597296640300,10.57364013671875,8.145000457763672,5.455050468444824,-0.046950001269578934
1784098597306725000,10.58372509765625,8.160000801086426,5.448000431060791,-0.05505000427365303
1784098597316810000,10.59381005859375,8.13794994354248,5.440950393676758,-0.05505000427365303
1784098597326894800,10.603894775390625,8.143050193786621,5.440950393676758,-0.05505000427365303
1784098597336979700,10.613979736328124,8.134050369262695,5.4340500831604,-0.06705000251531601
1784098597347064300,10.624064208984375,8.136000633239746,5.424000263214111,-0.05895000323653221
1784098597357149200,10.634149169921875,8.125950813293457,5.413950443267822,-0.06405000388622284
1784098597367234000,10.644234130859376,8.13794994354248,5.4120001792907715,-0.05895000323653221
1784098597377319000,10.65431884765625,8.125950813293457,5.410050392150879,-0.06195000186562538
1784098597387403800,10.66440380859375,8.13794994354248,5.404950141906738,-0.05895000323653221
1784098597397488600,10.674488525390625,8.134050369262695,5.404950141906738,-0.06405000388622284
1784098597407573500,10.684573486328125,8.143050193786621,5.395050048828125,-0.05505000427365303
1784098597417658400,10.694658447265626,8.143050193786621,5.407050132751465,-0.05895000323653221
1784098597427743200,10.7047431640625,8.157000541687012,5.401950359344482,-0.05895000323653221
1784098597437828000,10.714828125,8.155050277709961,5.4120001792907715,-0.046950001269578934
1784098597447912700,10.72491259765625,8.1670503616333,5.407050132751465,-0.037950001657009125
1784098597457997800,10.734997802734375,8.176950454711914,5.404950141906738,-0.046950001269578934
1784098597468082700,10.745082763671874,8.17905044555664,5.416950225830078,-0.04005000367760658
1784098597478167300,10.755167236328125,8.176950454711914,5.4120001792907715,-0.031050002202391624
1784098597488252200,10.765252197265625,8.181000709533691,5.413950443267822,-0.031050002202391624
1784098597498337300,10.775337158203126,8.196000099182129,5.424000263214111,-0.028050001710653305
1784098597508422100,10.785422119140625,8.176950454711914,5.4310503005981445,-0.025950001552700996
1784098597518506800,10.7955068359375,8.193000793457031,5.425950050354004,-0.019050000235438347
1784098597528592000,10.805591796875,8.164950370788574,5.425950050354004,-0.021000001579523087
1784098597538676500,10.815676513671875,8.169000625610352,5.4310503005981445,-0.022950001060962677
1784098597548761300,10.82576123046875,8.152950286865234,5.4310503005981445,-0.031050002202391624
1784098597558846200,10.83584619140625,8.160000801086426,5.422050476074219,-0.016050001606345177
1784098597568931000,10.84593115234375,8.143050193786621,5.436000347137451,-0.031050002202391624
1784098597579016000,10.856015869140625,8.152950286865234,5.4340500831604,-0.032999999821186066
1784098597589100800,10.866100830078125,8.134050369262695,5.437950134277344,-0.031050002202391624
1784098597599185700,10.876185546875,8.131050109863281,5.4340500831604,-0.028050001710653305
1784098597609270500,10.8862705078125,8.136000633239746,5.436000347137451,-0.034950003027915955
1784098597619355100,10.896355224609374,8.131050109863281,5.440950393676758,-0.037950001657009125
1784098597629440000,10.90643994140625,8.140950202941895,5.4340500831604,-0.037950001657009125
1784098597639524900,10.91652490234375,8.131050109863281,5.437950134277344,-0.046950001269578934
1784098597649609700,10.926609619140624,8.136000633239746,5.436000347137451,-0.0499500036239624
1784098597659694600,10.936694580078125,8.140950202941895,5.425950050354004,-0.04005000367760658
1784098597669779500,10.946779541015625,8.145000457763672,5.428950309753418,-0.05895000323653221
1784098597679864300,10.9568642578125,8.143050193786621,5.428950309753418,-0.05505000427365303
1784098597689949200,10.96694921875,8.155050277709961,5.416950225830078,-0.05505000427365303
1784098597700034000,10.977033935546874,8.140950202941895,5.416950225830078,-0.05205000191926956
1784098597710119000,10.987118896484375,8.1670503616333,5.407050132751465,-0.05700000375509262
1784098597720203800,10.997203857421875,8.16195011138916,5.404950141906738,-0.05895000323653221
1784098597730288600,11.00728857421875,8.17199993133545,5.401950359344482,-0.046950001269578934
1784098597740373200,11.017373291015625,8.1670503616333,5.398050308227539,-0.05895000323653221
1784098597750458000,11.0274580078125,8.17905044555664,5.404950141906738,-0.05700000375509262
1784098597760543000,11.03754296875,8.164950370788574,5.398050308227539,-0.05505000427365303
1784098597770627800,11.0476279296875,8.176950454711914,5.404950141906738,-0.05700000375509262
1784098597780712700,11.057712646484376,8.17905044555664,5.410050392150879,-0.05505000427365303
1784098597790797600,11.067797607421875,8.1670503616333,5.4120001792907715,-0.04305000230669975
1784098597800882400,11.07788232421875,8.176950454711914,5.419050216674805,-0.04305000230669975
1784098597810967300,11.08796728515625,8.1739501953125,5.419050216674805,-0.04305000230669975
1784098597821052200,11.09805224609375,8.164950370788574,5.4310503005981445,-0.037950001657009125
1784098597831137000,11.108136962890624,8.160000801086426,5.436000347137451,-0.031050002202391624
1784098597841222000,11.118221923828125,8.1739501953125,5.4310503005981445,-0.025950001552700996
1784098597851306500,11.128306396484374,8.143050193786621,5.440950393676758,-0.022950001060962677
1784098597861391600,11.1383916015625,8.157000541687012,5.437950134277344,-0.019050000235438347
1784098597871476200,11.148476318359375,8.13794994354248,5.443050384521484,-0.021000001579523087
1784098597881561000,11.15856103515625,8.145000457763672,5.437950134277344,-0.032999999821186066
1784098597891646000,11.16864599609375,8.131050109863281,5.440950393676758,-0.021000001579523087
1784098597901730800,11.178730712890625,8.13794994354248,5.428950309753418,-0.016050001606345177
1784098597911815700,11.188815673828126,8.128950119018555,5.436000347137451,-0.031050002202391624
1784098597921900500,11.198900634765625,8.13794994354248,5.425950050354004,-0.025950001552700996
1784098597931985400,11.2089853515625,8.128950119018555,5.428950309753418,-0.032999999821186066
1784098597942070300,11.2190703125,8.136000633239746,5.419050216674805,-0.025950001552700996
1784098597952155000,11.22915478515625,8.145000457763672,5.416950225830078,-0.032999999821186066
1784098597962240000,11.239239990234376,8.148000717163086,5.419050216674805,-0.028050001710653305
1784098597972324600,11.24932470703125,8.148000717163086,5.416950225830078,-0.04005000367760658
1784098597982409500,11.259409423828124,8.148000717163086,5.413950443267822,-0.04500000178813934
1784098597992494300,11.269494384765625,8.164950370788574,5.404950141906738,-0.05205000191926956
1784098598002579200,11.2795791015625,8.1670503616333,5.4120001792907715,-0.05205000191926956
1784098598012664000,11.2896640625,8.17905044555664,5.413950443267822,-0.05895000323653221
1784098598022749000,11.2997490234375,8.1739501953125,5.416950225830078,-0.05895000323653221
1784098598032833800,11.309833740234374,8.164950370788574,5.410050392150879,-0.05700000375509262
1784098598042918400,11.31991845703125,8.17199993133545,5.407050132751465,-0.05700000375509262
1784098598053003300,11.330003173828125,8.176950454711914,5.413950443267822,-0.05895000323653221
1784098598063088000,11.340088134765624,8.169000625610352,5.4120001792907715,-0.05505000427365303
1784098598073173000,11.350173095703125,8.18595027923584,5.4120001792907715,-0.06195000186562538
1784098598083257900,11.3602578125,8.164950370788574,5.419050216674805,-0.05505000427365303
1784098598093342700,11.3703427734375,8.17199993133545,5.416950225830078,-0.04500000178813934
1784098598103427600,11.380427490234375,8.1670503616333,5.422050476074219,-0.05700000375509262
1784098598113512400,11.390512451171874,8.16195011138916,5.419050216674805,-0.04005000367760658
1784098598123597300,11.400597412109375,8.152950286865234,5.425950050354004,-0.04500000178813934
1784098598133682200,11.41068212890625,8.14995002746582,5.440950393676758,-0.031050002202391624
1784098598143766800,11.420766845703126,8.145000457763672,5.4310503005981445,-0.025950001552700996
1784098598153851600,11.4308515625,8.13794994354248,5.4310503005981445,-0.028050001710653305
1784098598163936500,11.4409365234375,8.145000457763672,5.437950134277344,-0.028050001710653305
1784098598174021400,11.451021484375,8.124000549316406,5.428950309753418,-0.022950001060962677
1784098598184106200,11.461106201171875,8.140950202941895,5.419050216674805,-0.028050001710653305
1784098598194191000,11.471191162109376,8.128950119018555,5.428950309753418,-0.021000001579523087
1784098598204276000,11.48127587890625,8.140950202941895,5.425950050354004,-0.028050001710653305
1784098598214360800,11.49136083984375,8.13794994354248,5.422050476074219,-0.021000001579523087
1784098598224445700,11.50144580078125,8.13794994354248,5.428950309753418,-0.028050001710653305
1784098598234530600,11.511530517578125,8.136000633239746,5.428950309753418,-0.028050001710653305
1784098598244615400,11.521615478515624,8.155050277709961,5.422050476074219,-0.022950001060962677
1784098598254700300,11.5317001953125,8.152950286865234,5.4310503005981445,-0.031050002202391624
1784098598264785200,11.54178515625,8.160000801086426,5.413950443267822,-0.04005000367760658
1784098598274870000,11.5518701171875,8.152950286865234,5.419050216674805,-0.037950001657009125
1784098598284955000,11.561954833984375,8.17199993133545,5.419050216674805,-0.032999999821186066
1784098598295039500,11.57203955078125,8.155050277709961,5.407050132751465,-0.04500000178813934
1784098598305124400,11.582124267578125,8.1739501953125,5.410050392150879,-0.032999999821186066
1784098598315209200,11.592209228515625,8.169000625610352,5.410050392150879,-0.04500000178813934
1784098598325294000,11.602294189453126,8.17199993133545,5.404950141906738,-0.0499500036239624
1784098598335379000,11.61237890625,8.18595027923584,5.416950225830078,-0.05505000427365303
1784098598345463800,11.6224638671875,8.17199993133545,5.410050392150879,-0.046950001269578934
1784098598355548700,11.632548583984375,8.164950370788574,5.410050392150879,-0.05205000191926956
1784098598365633500,11.642633544921875,8.164950370788574,5.4120001792907715,-0.05700000375509262
1784098598375718400,11.652718505859376,8.1670503616333,5.422050476074219,-0.06405000388622284
1784098598385803300,11.66280322265625,8.160000801086426,5.419050216674805,-0.05895000323653221
1784098598395887900,11.672887939453124,8.169000625610352,5.428950309753418,-0.05700000375509262
1784098598405972700,11.68297265625,8.152950286865234,5.4310503005981445,-0.05700000375509262
1784098598416057600,11.6930576171875,8.157000541687012,5.422050476074219,-0.05505000427365303
1784098598426142500,11.703142578125,8.145000457763672,5.437950134277344,-0.05505000427365303
1784098598436227300,11.713227294921875,8.148000717163086,5.4310503005981445,-0.046950001269578934
1784098598446312000,11.72331201171875,8.136000633239746,5.4310503005981445,-0.04005000367760658
1784098598456396800,11.733396728515626,8.145000457763672,5.428950309753418,-0.034950003027915955
1784098598466481700,11.743481689453125,8.131050109863281,5.4310503005981445,-0.034950003027915955
1784098598476566500,11.75356640625,8.13794994354248,5.436000347137451,-0.034950003027915955
1784098598486651400,11.7636513671875,8.134050369262695,5.4340500831604,-0.028050001710653305
1784098598496736300,11.773736328125,8.134050369262695,5.424000263214111,-0.037950001657009125
1784098598506821000,11.783821044921876,8.13794994354248,5.4340500831604,-0.031050002202391624
1784098598516906000,11.793906005859375,8.143050193786621,5.425950050354004,-0.022950001060962677
1784098598526990800,11.803990966796874,8.152950286865234,5.422050476074219,-0.025950001552700996
1784098598537075700,11.81407568359375,8.14995002746582,5.424000263214111,-0.025950001552700996
1784098598547160300,11.824160400390625,8.16195011138916,5.422050476074219,-0.025950001552700996
1784098598557245200,11.8342451171875,8.145000457763672,5.419050216674805,-0.028050001710653305
1784098598567330000,11.844330078125,8.169000625610352,5.413950443267822,-0.032999999821186066
1784098598577415000,11.854414794921874,8.155050277709961,5.419050216674805,-0.032999999821186066
1784098598587499800,11.864499755859375,8.169000625610352,5.416950225830078,-0.022950001060962677
1784098598597584600,11.874584716796875,8.17199993133545,5.422050476074219,-0.037950001657009125
1784098598607669500,11.88466943359375,8.176950454711914,5.407050132751465,-0.04005000367760658
1784098598617754400,11.89475439453125,8.169000625610352,5.416950225830078,-0.037950001657009125
1784098598627839200,11.904839111328124,8.176950454711914,5.416950225830078,-0.046950001269578934
1784098598637923800,11.914923828125,8.169000625610352,5.416950225830078,-0.04005000367760658
1784098598648008700,11.9250087890625,8.164950370788574,5.410050392150879,-0.046950001269578934
1784098598658093600,11.935093505859374,8.1739501953125,5.410050392150879,-0.046950001269578934
1784098598668178400,11.945178466796875,8.169000625610352,5.416950225830078,-0.05205000191926956
1784098598678263300,11.95526318359375,8.157000541687012,5.416950225830078,-0.0499500036239624
1784098598688348200,11.96534814453125,8.160000801086426,5.419050216674805,-0.0499500036239624
1784098598698433000,11.97543310546875,8.145000457763672,5.424000263214111,-0.05205000191926956
1784098598708518000,11.985517822265624,8.143050193786621,5.422050476074219,-0.05205000191926956
1784098598718602800,11.995602783203125,8.152950286865234,5.425950050354004,-0.05505000427365303
1784098598728687400,12.005687255859375,8.140950202941895,5.424000263214111,-0.05700000375509262
1784098598738772200,12.015772216796876,8.145000457763672,5.424000263214111,-0.05205000191926956
1784098598748857000,12.025857177734375,8.136000633239746,5.428950309753418,-0.0499500036239624
1784098598758942000,12.03594189453125,8.13794994354248,5.419050216674805,-0.0499500036239624
1784098598769026800,12.04602685546875,8.128950119018555,5.419050216674805,-0.04500000178813934
1784098598779111700,12.056111572265625,8.140950202941895,5.4310503005981445,-0.04305000230669975
1784098598789196500,12.066196533203126,8.134050369262695,5.428950309753418,-0.04305000230669975
1784098598799281400,12.076281494140625,8.148000717163086,5.422050476074219,-0.034950003027915955
1784098598809366300,12.0863662109375,8.14995002746582,5.425950050354004,-0.04005000367760658
1784098598819451100,12.096451171875,8.160000801086426,5.419050216674805,-0.04305000230669975
1784098598829536000,12.106535888671875,8.155050277709961,5.424000263214111,-0.037950001657009125
1784098598839620900,12.116620849609374,8.160000801086426,5.425950050354004,-0.04305000230669975
1784098598849705700,12.126705810546875,8.16195011138916,5.428950309753418,-0.032999999821186066
1784098598859790600,12.13679052734375,8.1670503616333,5.419050216674805,-0.032999999821186066
1784098598869875200,12.146875244140626,8.1739501953125,5.422050476074219,-0.032999999821186066
1784098598879960000,12.1569599609375,8.160000801086426,5.422050476074219,-0.037950001657009125
1784098598890045000,12.167044921875,8.184000015258789,5.419050216674805,-0.031050002202391624
1784098598900129800,12.1771298828125,8.164950370788574,5.422050476074219,-0.028050001710653305
1784098598910214700,12.187214599609375,8.176950454711914,5.424000263214111,-0.04005000367760658
1784098598920299500,12.197299560546876,8.169000625610352,5.4120001792907715,-0.032999999821186066
1784098598930384400,12.20738427734375,8.176950454711914,5.419050216674805,-0.037950001657009125
1784098598940469200,12.21746923828125,8.152950286865234,5.419050216674805,-0.032999999821186066
1784098598950554000,12.22755419921875,8.176950454711914,5.413950443267822,-0.032999999821186066
1784098598960638700,12.237638671875,8.164950370788574,5.425950050354004,-0.037950001657009125
1784098598970723600,12.2477236328125,8.155050277709961,5.422050476074219,-0.04500000178813934
1784098598980808400,12.257808349609375,8.157000541687012,5.424000263214111,-0.04305000230669975
1784098598990893300,12.267893310546874,8.164950370788574,5.419050216674805,-0.046950001269578934
1784098599000978200,12.277978271484375,8.145000457763672,5.422050476074219,-0.0499500036239624
1784098599011063000,12.28806298828125,8.14995002746582,5.4120001792907715,-0.06195000186562538
1784098599021148000,12.29814794921875,8.145000457763672,5.419050216674805,-0.04500000178813934
1784098599031232500,12.308232421875,8.136000633239746,5.413950443267822,-0.0499500036239624
1784098599041317400,12.3183173828125,8.140950202941895,5.424000263214111,-0.04305000230669975
1784098599051402200,12.32840234375,8.136000633239746,5.422050476074219,-0.0499500036239624
1784098599061487000,12.338487060546875,8.134050369262695,5.424000263214111,-0.04305000230669975
1784098599071572000,12.348572021484374,8.143050193786621,5.422050476074219,-0.04500000178813934
1784098599081656800,12.35865673828125,8.148000717163086,5.419050216674805,-0.0499500036239624
1784098599091741400,12.368741455078125,8.143050193786621,5.4310503005981445,-0.04500000178813934
1784098599101826300,12.378826416015626,8.160000801086426,5.4340500831604,-0.046950001269578934
1784098599111911200,12.3889111328125,8.143050193786621,5.4310503005981445,-0.032999999821186066
1784098599121996000,12.39899609375,8.169000625610352,5.424000263214111,-0.04305000230669975
1784098599132081000,12.409080810546875,8.155050277709961,5.428950309753418,-0.034950003027915955
1784098599142165800,12.419165771484375,8.176950454711914,5.4310503005981445,-0.04305000230669975
1784098599152250600,12.429250732421876,8.160000801086426,5.4340500831604,-0.04005000367760658
1784098599162335500,12.43933544921875,8.17905044555664,5.424000263214111,-0.034950003027915955
1784098599172420000,12.449420166015624,8.164950370788574,5.425950050354004,-0.031050002202391624
1784098599182505000,12.4595048828125,8.176950454711914,5.4310503005981445,-0.04500000178813934
1784098599192589800,12.46958984375,8.1739501953125,5.425950050354004,-0.031050002202391624
1784098599202674700,12.4796748046875,8.17199993133545,5.419050216674805,-0.032999999821186066
1784098599212759600,12.489759521484375,8.1739501953125,5.416950225830078,-0.031050002202391624
1784098599222844200,12.49984423828125,8.164950370788574,5.422050476074219,-0.025950001552700996
1784098599232929000,12.509928955078125,8.1670503616333,5.410050392150879,-0.034950003027915955
1784098599243014000,12.520013916015625,8.164950370788574,5.410050392150879,-0.04005000367760658
1784098599253098800,12.5300986328125,8.157000541687012,5.419050216674805,-0.034950003027915955
1784098599263183600,12.54018359375,8.140950202941895,5.416950225830078,-0.032999999821186066
1784098599273268500,12.5502685546875,8.157000541687012,5.413950443267822,-0.028050001710653305
1784098599283353300,12.560353271484376,8.134050369262695,5.4120001792907715,-0.032999999821186066
1784098599293438200,12.570438232421875,8.155050277709961,5.4120001792907715,-0.04305000230669975
1784098599303523000,12.580523193359374,8.136000633239746,5.416950225830078,-0.034950003027915955
1784098599313608000,12.59060791015625,8.157000541687012,5.416950225830078,-0.037950001657009125
1784098599323692800,12.60069287109375,8.134050369262695,5.416950225830078,-0.046950001269578934
1784098599333777700,12.610777587890626,8.14995002746582,5.424000263214111,-0.046950001269578934
1784098599343862300,12.6208623046875,8.145000457763672,5.424000263214111,-0.04305000230669975
1784098599353947100,12.630947021484374,8.148000717163086,5.428950309753418,-0.04005000367760658
1784098599364032000,12.641031982421875,8.145000457763672,5.424000263214111,-0.04005000367760658
1784098599374116900,12.651116943359375,8.16195011138916,5.425950050354004,-0.05205000191926956
1784098599384201700,12.66120166015625,8.14995002746582,5.428950309753418,-0.037950001657009125
1784098599394286600,12.67128662109375,8.155050277709961,5.425950050354004,-0.04500000178813934
1784098599404371500,12.681371337890624,8.152950286865234,5.428950309753418,-0.032999999821186066
1784098599414456300,12.691456298828125,8.160000801086426,5.424000263214111,-0.037950001657009125
1784098599424541200,12.701541259765625,8.164950370788574,5.425950050354004,-0.037950001657009125
1784098599434625800,12.711625732421876,8.164950370788574,5.428950309753418,-0.04005000367760658
1784098599444710700,12.721710693359375,8.169000625610352,5.425950050354004,-0.04305000230669975
1784098599454795500,12.73179541015625,8.164950370788574,5.4340500831604,-0.037950001657009125
1784098599464880400,12.74188037109375,8.164950370788574,5.425950050354004,-0.04005000367760658
1784098599474965200,12.75196533203125,8.169000625610352,5.419050216674805,-0.034950003027915955
1784098599485050000,12.762050048828126,8.17199993133545,5.419050216674805,-0.032999999821186066
1784098599495135000,12.772135009765625,8.16195011138916,5.428950309753418,-0.037950001657009125
1784098599505219800,12.7822197265625,8.16195011138916,5.425950050354004,-0.04005000367760658
1784098599515304400,12.792304443359376,8.160000801086426,5.425950050354004,-0.04005000367760658
1784098599525389600,12.8023896484375,8.160000801086426,5.416950225830078,-0.04005000367760658
1784098599535474200,12.81247412109375,8.145000457763672,5.413950443267822,-0.032999999821186066
1784098599545559000,12.82255908203125,8.157000541687012,5.419050216674805,-0.032999999821186066
1784098599555644000,12.832643798828125,8.143050193786621,5.419050216674805,-0.037950001657009125
1784098599565728800,12.842728759765626,8.152950286865234,5.410050392150879,-0.0499500036239624
1784098599575813600,12.852813720703125,8.148000717163086,5.419050216674805,-0.04305000230669975
1784098599585898500,12.8628984375,8.14995002746582,5.416950225830078,-0.04005000367760658
1784098599595983400,12.8729833984375,8.140950202941895,5.413950443267822,-0.04500000178813934
1784098599606068200,12.883068115234375,8.14995002746582,5.413950443267822,-0.04500000178813934
1784098599616152800,12.89315283203125,8.145000457763672,5.419050216674805,-0.037950001657009125
1784098599626237700,12.90323779296875,8.148000717163086,5.416950225830078,-0.04500000178813934
1784098599636322600,12.913322509765624,8.16195011138916,5.425950050354004,-0.034950003027915955
1784098599646407400,12.923407470703125,8.155050277709961,5.422050476074219,-0.037950001657009125
1784098599656492300,12.9334921875,8.160000801086426,5.422050476074219,-0.032999999821186066
1784098599666577200,12.9435771484375,8.16195011138916,5.424000263214111,-0.04305000230669975
1784098599676662000,12.953662109375,8.169000625610352,5.416950225830078,-0.037950001657009125
1784098599686747000,12.963746826171874,8.164950370788574,5.425950050354004,-0.034950003027915955
