time,seconds_elapsed,z,y,x
1784194466351423000,0.132423095703125,6.070050239562988,7.701000213623047,-0.1189500093460083
1784194466361524200,0.142524169921875,6.070050239562988,7.701000213623047,-0.11700000613927841
1784194466371678700,0.1526787109375,6.060000419616699,7.701000213623047,-0.11400000751018524
1784194466381666000,0.162666015625,6.060000419616699,7.69605016708374,-0.11700000613927841
1784194466391767300,0.172767333984375,6.067050457000732,7.701000213623047,-0.11700000613927841
1784194466401838000,0.182838134765625,6.063000202178955,7.702950477600098,-0.12195000797510147
1784194466411939300,0.192939208984375,6.060000419616699,7.701000213623047,-0.12405000627040863
1784194466422098700,0.2030986328125,6.064950466156006,7.701000213623047,-0.11700000613927841
1784194466432183000,0.21318310546875,6.067050457000732,7.7059502601623535,-0.11400000751018524
1784194466442267000,0.223266845703125,6.064950466156006,7.7059502601623535,-0.1189500093460083
1784194466452351000,0.23335107421875,6.067050457000732,7.698000431060791,-0.12195000797510147
1784194466462324000,0.243323974609375,6.064950466156006,7.702950477600098,-0.1189500093460083
1784194466472519000,0.253518798828125,6.055050373077393,7.701000213623047,-0.11400000751018524
1784194466482526700,0.263526611328125,6.055050373077393,7.698000431060791,-0.11400000751018524
1784194466492567000,0.273567138671875,6.060000419616699,7.701000213623047,-0.1189500093460083
1784194466502668300,0.283668212890625,6.058050155639648,7.701000213623047,-0.1189500093460083
1784194466512739000,0.293739013671875,6.058050155639648,7.7059502601623535,-0.11400000751018524
1784194466522939000,0.30393896484375,6.063000202178955,7.7059502601623535,-0.11205000430345535
1784194466532941800,0.31394189453125,6.060000419616699,7.7059502601623535,-0.11700000613927841
1784194466543106800,0.32410693359375,6.058050155639648,7.702950477600098,-0.1189500093460083
1784194466553083400,0.33408349609375,6.058050155639648,7.698000431060791,-0.1099500060081482
1784194466563275000,0.34427490234375,6.060000419616699,7.698000431060791,-0.11205000430345535
1784194466573359000,0.354359130859375,6.063000202178955,7.702950477600098,-0.12405000627040863
1784194466583357000,0.36435693359375,6.055050373077393,7.701000213623047,-0.12195000797510147
1784194466593458200,0.374458251953125,6.058050155639648,7.702950477600098,-0.1189500093460083
1784194466603529000,0.384529052734375,6.067050457000732,7.70805025100708,-0.11400000751018524
1784194466613630200,0.394630126953125,6.070050239562988,7.701000213623047,-0.11205000430345535
1784194466623701000,0.404700927734375,6.064950466156006,7.701000213623047,-0.11700000613927841
1784194466633741300,0.4147412109375,6.058050155639648,7.698000431060791,-0.1099500060081482
1784194466643842600,0.424842529296875,6.067050457000732,7.698000431060791,-0.1099500060081482
1784194466653913300,0.434913330078125,6.072000503540039,7.702950477600098,-0.1189500093460083
1784194466664115000,0.445114990234375,6.064950466156006,7.702950477600098,-0.1189500093460083
1784194466674199000,0.455198974609375,6.067050457000732,7.702950477600098,-0.11400000751018524
1784194466684283000,0.465282958984375,6.075000286102295,7.70805025100708,-0.1189500093460083
1784194466694288100,0.4752880859375,6.064950466156006,7.701000213623047,-0.12405000627040863
1784194466704389400,0.485389404296875,6.063000202178955,7.701000213623047,-0.11400000751018524
1784194466714429700,0.4954296875,6.075000286102295,7.7059502601623535,-0.11205000430345535
1784194466724619000,0.505618896484375,6.075000286102295,7.701000213623047,-0.11700000613927841
1784194466734632400,0.515632568359375,6.064950466156006,7.69605016708374,-0.11700000613927841
1784194466744672800,0.5256728515625,6.070050239562988,7.701000213623047,-0.1099500060081482
1784194466754804200,0.53580419921875,6.072000503540039,7.702950477600098,-0.11205000430345535
1784194466764875300,0.545875244140625,6.067050457000732,7.701000213623047,-0.1189500093460083
1784194466775039000,0.5560390625,6.067050457000732,7.701000213623047,-0.1189500093460083
1784194466785123000,0.566123046875,6.067050457000732,7.701000213623047,-0.12195000797510147
1784194466795207000,0.57620703125,6.064950466156006,7.698000431060791,-0.11700000613927841
1784194466805188900,0.58618896484375,6.060000419616699,7.701000213623047,-0.11400000751018524
1784194466815290000,0.5962900390625,6.063000202178955,7.702950477600098,-0.11400000751018524
1784194466825361000,0.60636083984375,6.067050457000732,7.7059502601623535,-0.11700000613927841
1784194466835431700,0.616431640625,6.060000419616699,7.702950477600098,-0.12195000797510147
1784194466845627000,0.626626953125,6.060000419616699,7.7059502601623535,-0.12600000202655792
1784194466855634400,0.636634521484375,6.067050457000732,7.702950477600098,-0.11700000613927841
1784194466865705200,0.646705322265625,6.070050239562988,7.702950477600098,-0.11700000613927841
1784194466875776000,0.65677587890625,6.063000202178955,7.7059502601623535,-0.12195000797510147
1784194466885877500,0.66687744140625,6.064950466156006,7.701000213623047,-0.11400000751018524
1784194466896047000,0.677047119140625,6.075000286102295,7.701000213623047,-0.10695000737905502
1784194466906131200,0.687131103515625,6.072000503540039,7.701000213623047,-0.11400000751018524
1784194466916215000,0.697215087890625,6.070050239562988,7.698000431060791,-0.12195000797510147
1784194466926221600,0.7072216796875,6.075000286102295,7.701000213623047,-0.11205000430345535
1784194466936292400,0.717292236328125,6.072000503540039,7.701000213623047,-0.11205000430345535
1784194466946467000,0.727467041015625,6.067050457000732,7.701000213623047,-0.1189500093460083
1784194466956434000,0.737433837890625,6.075000286102295,7.7059502601623535,-0.12405000627040863
1784194466966565600,0.747565673828125,6.079050064086914,7.70805025100708,-0.11400000751018524
1784194466976606000,0.75760595703125,6.075000286102295,7.702950477600098,-0.11700000613927841
1784194466986738000,0.767738037109375,6.072000503540039,7.698000431060791,-0.1189500093460083
1784194466996887000,0.777886962890625,6.072000503540039,7.701000213623047,-0.1189500093460083
1784194467006971100,0.78797119140625,6.0769500732421875,7.701000213623047,-0.1189500093460083
1784194467016980700,0.797980712890625,6.072000503540039,7.698000431060791,-0.11700000613927841
1784194467027021000,0.80802099609375,6.070050239562988,7.701000213623047,-0.11400000751018524
1784194467037152800,0.81815283203125,6.0769500732421875,7.701000213623047,-0.11700000613927841
1784194467047307000,0.82830712890625,6.075000286102295,7.702950477600098,-0.11400000751018524
1784194467057325000,0.838324951171875,6.070050239562988,7.702950477600098,-0.11400000751018524
1784194467067395800,0.848395751953125,6.075000286102295,7.69605016708374,-0.11700000613927841
1784194467077466600,0.858466552734375,6.075000286102295,7.69605016708374,-0.11700000613927841
1784194467087568000,0.86856787109375,6.070050239562988,7.698000431060791,-0.11700000613927841
1784194467097727200,0.878727294921875,6.070050239562988,7.701000213623047,-0.11400000751018524
1784194467107709700,0.888709716796875,6.063000202178955,7.7059502601623535,-0.11205000430345535
1784194467117810700,0.898810791015625,6.063000202178955,7.7059502601623535,-0.11205000430345535
1784194467127979300,0.908979248046875,6.075000286102295,7.701000213623047,-0.11205000430345535
1784194467138063400,0.9190634765625,6.072000503540039,7.702950477600098,-0.10695000737905502
1784194467148147200,0.929147216796875,6.060000419616699,7.702950477600098,-0.10500000417232513
1784194467158155300,0.9391552734375,6.067050457000732,7.701000213623047,-0.1099500060081482
1784194467168225800,0.949225830078125,6.070050239562988,7.69605016708374,-0.1099500060081482
1784194467178296600,0.959296630859375,6.072000503540039,7.698000431060791,-0.1099500060081482
1784194467188398000,0.969398193359375,6.072000503540039,7.701000213623047,-0.1189500093460083
1784194467198499600,0.97949951171875,6.070050239562988,7.698000431060791,-0.1189500093460083
1784194467208539600,0.98953955078125,6.070050239562988,7.698000431060791,-0.11700000613927841
1784194467218671600,0.999671630859375,6.072000503540039,7.693950176239014,-0.12405000627040863
1784194467228712000,1.0097119140625,6.072000503540039,7.69605016708374,-0.12405000627040863
1784194467238813200,1.019813232421875,6.075000286102295,7.698000431060791,-0.12195000797510147
1784194467248914400,1.02991455078125,6.079050064086914,7.701000213623047,-0.12195000797510147
1784194467258985200,1.039985107421875,6.075000286102295,7.702950477600098,-0.12195000797510147
1784194467269056000,1.050055908203125,6.072000503540039,7.702950477600098,-0.11700000613927841
1784194467279157500,1.060157470703125,6.0769500732421875,7.702950477600098,-0.11205000430345535
1784194467289258800,1.0702587890625,6.070050239562988,7.702950477600098,-0.1099500060081482
1784194467299329500,1.08032958984375,6.072000503540039,7.7059502601623535,-0.1099500060081482
1784194467309369900,1.090369873046875,6.079050064086914,7.7059502601623535,-0.10695000737905502
1784194467319575600,1.100575439453125,6.070050239562988,7.702950477600098,-0.10695000737905502
1784194467329659600,1.11065966796875,6.064950466156006,7.7059502601623535,-0.10695000737905502
1784194467339743500,1.120743408203125,6.075000286102295,7.710000514984131,-0.10695000737905502
1784194467349744600,1.13074462890625,6.082050323486328,7.7059502601623535,-0.11700000613927841
1784194467359846000,1.140845947265625,6.075000286102295,7.698000431060791,-0.1290000081062317
1784194467369886200,1.15088623046875,6.0769500732421875,7.69605016708374,-0.1380000114440918
1784194467379987500,1.160987548828125,6.084000110626221,7.69605016708374,-0.1290000081062317
1784194467390058200,1.171058349609375,6.075000286102295,7.69605016708374,-0.1189500093460083
1784194467400129000,1.18112890625,6.064950466156006,7.689000129699707,-0.10695000737905502
1784194467410261000,1.191260986328125,6.072000503540039,7.684050559997559,-0.11205000430345535
1784194467420415700,1.201415771484375,6.070050239562988,7.684050559997559,-0.1360500007867813
1784194467430433000,1.21143310546875,6.060000419616699,7.6870503425598145,-0.14100000262260437
1784194467440503800,1.22150390625,6.064950466156006,7.6870503425598145,-0.1380000114440918
1784194467450574600,1.23157470703125,6.067050457000732,7.717950344085693,-0.13395000994205475
1784194467460645600,1.241645751953125,6.072000503540039,7.701000213623047,-0.0499500036239624
1784194467470836000,1.2518359375,6.0769500732421875,7.684050559997559,-0.07395000010728836
1784194467480848100,1.26184814453125,6.064950466156006,7.726950168609619,-0.22500000894069672
1784194467490919000,1.2719189453125,6.058050155639648,7.7149505615234375,-0.13095000386238098
1784194467501088000,1.282087890625,6.094050407409668,7.702950477600098,-0.034950003027915955
1784194467511172000,1.292172119140625,6.091050148010254,7.725000381469727,-0.13095000386238098
1784194467521256200,1.302256103515625,6.051000118255615,7.729950428009033,-0.1789500117301941
1784194467531232800,1.312232666015625,6.075000286102295,7.717950344085693,-0.1099500060081482
1784194467541334000,1.322333984375,6.091050148010254,7.7149505615234375,-0.06705000251531601
1784194467551435300,1.332435302734375,6.064950466156006,7.713000297546387,-0.13395000994205475
1784194467561475600,1.3424755859375,6.058050155639648,7.70805025100708,-0.14805001020431519
1784194467571676200,1.35267626953125,6.075000286102295,7.701000213623047,-0.10005000233650208
1784194467581647600,1.362647705078125,6.064950466156006,7.698000431060791,-0.0880500078201294
1784194467591844000,1.372843994140625,6.060000419616699,7.693950176239014,-0.12600000202655792
1784194467601820000,1.38281982421875,6.064950466156006,7.6870503425598145,-0.13395000994205475
1784194467611890700,1.392890625,6.070050239562988,7.681950569152832,-0.09795000404119492
1784194467622096100,1.40309619140625,6.075000286102295,7.678950309753418,-0.10200000554323196
1784194467632062700,1.413062744140625,6.070050239562988,7.678950309753418,-0.12600000202655792
1784194467642194700,1.423194580078125,6.067050457000732,7.677000522613525,-0.11400000751018524
1784194467652235000,1.433235107421875,6.075000286102295,7.678950309753418,-0.09300000220537186
1784194467662366700,1.44336669921875,6.082050323486328,7.6870503425598145,-0.10500000417232513
1784194467672516400,1.453516357421875,6.072000503540039,7.690950393676758,-0.1290000081062317
1784194467682600200,1.46360009765625,6.064950466156006,7.693950176239014,-0.11400000751018524
1784194467692684300,1.473684326171875,6.082050323486328,7.693950176239014,-0.10005000233650208
1784194467702768400,1.483768310546875,6.079050064086914,7.698000431060791,-0.11400000751018524
1784194467712781600,1.493781494140625,6.063000202178955,7.7059502601623535,-0.12600000202655792
1784194467722936300,1.503936279296875,6.072000503540039,7.7059502601623535,-0.1189500093460083
1784194467732953900,1.513953857421875,6.079050064086914,7.702950477600098,-0.10695000737905502
1784194467742994200,1.523994140625,6.064950466156006,7.710000514984131,-0.12405000627040863
1784194467753126000,1.5341259765625,6.060000419616699,7.7149505615234375,-0.13395000994205475
1784194467763166200,1.544166259765625,6.072000503540039,7.713000297546387,-0.1189500093460083
1784194467773356500,1.5543564453125,6.070050239562988,7.710000514984131,-0.11400000751018524
1784194467783368700,1.56436865234375,6.060000419616699,7.710000514984131,-0.1290000081062317
1784194467793434600,1.5744345703125,6.063000202178955,7.713000297546387,-0.13395000994205475
1784194467803510500,1.584510498046875,6.064950466156006,7.710000514984131,-0.12195000797510147
1784194467813581300,1.594581298828125,6.055050373077393,7.70805025100708,-0.1189500093460083
1784194467823682300,1.604682373046875,6.058050155639648,7.7059502601623535,-0.1380000114440918
1784194467833753300,1.61475341796875,6.063000202178955,7.7059502601623535,-0.1380000114440918
1784194467843854600,1.6248544921875,6.060000419616699,7.70805025100708,-0.12600000202655792
1784194467853956000,1.6349560546875,6.063000202178955,7.7059502601623535,-0.12405000627040863
1784194467864112600,1.645112548828125,6.064950466156006,7.7059502601623535,-0.12600000202655792
1784194467874196700,1.65519677734375,6.060000419616699,7.701000213623047,-0.12195000797510147
1784194467884280800,1.66528076171875,6.063000202178955,7.69605016708374,-0.11700000613927841
1784194467894269700,1.675269775390625,6.067050457000732,7.690950393676758,-0.1189500093460083
1784194467904340500,1.685340576171875,6.075000286102295,7.690950393676758,-0.12195000797510147
1784194467914411300,1.695411376953125,6.075000286102295,7.693950176239014,-0.1099500060081482
1784194467924617000,1.705616943359375,6.0769500732421875,7.690950393676758,-0.10695000737905502
1784194467934614000,1.715614013671875,6.0769500732421875,7.690950393676758,-0.10500000417232513
1784194467944684800,1.725684814453125,6.070050239562988,7.690950393676758,-0.10200000554323196
1784194467954869000,1.735868896484375,6.075000286102295,7.693950176239014,-0.09495000541210175
1784194467964887300,1.74588720703125,6.082050323486328,7.69605016708374,-0.09795000404119492
1784194467975004400,1.75600439453125,6.079050064086914,7.698000431060791,-0.10005000233650208
1784194467985121000,1.76612109375,6.072000503540039,7.701000213623047,-0.10005000233650208
1784194467995205000,1.776205078125,6.0769500732421875,7.7059502601623535,-0.09495000541210175
1784194468005201200,1.786201171875,6.082050323486328,7.702950477600098,-0.09300000220537186
1784194468015302400,1.796302490234375,6.072000503540039,7.702950477600098,-0.09495000541210175
1784194468025373400,1.80637353515625,6.067050457000732,7.7059502601623535,-0.09495000541210175
1784194468035474700,1.816474609375,6.070050239562988,7.710000514984131,-0.09495000541210175
1784194468045625300,1.826625244140625,6.058050155639648,7.7059502601623535,-0.09795000404119492
1784194468055709400,1.83670947265625,6.051000118255615,7.7059502601623535,-0.10200000554323196
1784194468065793300,1.846793212890625,6.060000419616699,7.702950477600098,-0.10500000417232513
1784194468075757800,1.8567578125,6.055050373077393,7.701000213623047,-0.10695000737905502
1784194468085859000,1.866859130859375,6.048000335693359,7.701000213623047,-0.11205000430345535
1784194468101087500,1.88208740234375,6.052950382232666,7.69605016708374,-0.12195000797510147
1784194468116213500,1.897213623046875,6.058050155639648,7.690950393676758,-0.12195000797510147
1784194468126297300,1.90729736328125,6.051000118255615,7.684050559997559,-0.1290000081062317
1784194468136381400,1.91738134765625,6.048000335693359,7.698000431060791,-0.1290000081062317
1784194468146465500,1.927465576171875,6.064950466156006,7.69605016708374,-0.12600000202655792
1784194468156549600,1.937549560546875,6.072000503540039,7.698000431060791,-0.13395000994205475
1784194468166633500,1.947633544921875,6.063000202178955,7.69605016708374,-0.12600000202655792
1784194468176717600,1.957717529296875,6.070050239562988,7.69605016708374,-0.14295001327991486
1784194468186801700,1.9678017578125,6.075000286102295,7.70805025100708,-0.13095000386238098
1784194468196885500,1.977885498046875,6.063000202178955,7.713000297546387,-0.14805001020431519
1784194468206969600,1.987969482421875,6.082050323486328,7.7059502601623535,-0.1290000081062317
1784194468217053700,1.9980537109375,6.079050064086914,7.702950477600098,-0.14100000262260437
1784194468227137800,2.0081376953125,6.060000419616699,7.7059502601623535,-0.14100000262260437
1784194468237222000,2.018221923828125,6.0859503746032715,7.7149505615234375,-0.12600000202655792
1784194468247305700,2.0283056640625,6.0859503746032715,7.7059502601623535,-0.1380000114440918
1784194468257389800,2.038389892578125,6.075000286102295,7.698000431060791,-0.12600000202655792
1784194468267474000,2.048473876953125,6.063000202178955,7.698000431060791,-0.14100000262260437
1784194468277557800,2.058557861328125,6.0769500732421875,7.701000213623047,-0.1189500093460083
1784194468287641900,2.068641845703125,6.072000503540039,7.690950393676758,-0.12195000797510147
1784194468297725700,2.0787255859375,6.063000202178955,7.701000213623047,-0.12405000627040863
1784194468307809800,2.088809814453125,6.072000503540039,7.693950176239014,-0.1099500060081482
1784194468317894000,2.098893798828125,6.064950466156006,7.689000129699707,-0.1099500060081482
1784194468327978000,2.10897802734375,6.058050155639648,7.689000129699707,-0.10005000233650208
1784194468338062000,2.11906201171875,6.063000202178955,7.702950477600098,-0.10500000417232513
1784194468348146200,2.129146240234375,6.075000286102295,7.69605016708374,-0.10500000417232513
1784194468358230300,2.139230224609375,6.046050071716309,7.698000431060791,-0.08595000207424164
1784194468368314000,2.149314208984375,6.048000335693359,7.69605016708374,-0.09300000220537186
1784194468378398200,2.159398193359375,6.070050239562988,7.702950477600098,-0.10005000233650208
1784194468388482300,2.169482421875,6.043050289154053,7.698000431060791,-0.08595000207424164
1784194468398566100,2.179566162109375,6.040950298309326,7.7059502601623535,-0.10695000737905502
1784194468408650200,2.189650146484375,6.060000419616699,7.69605016708374,-0.09495000541210175
1784194468418734300,2.199734375,6.046050071716309,7.702950477600098,-0.09795000404119492
1784194468428818400,2.209818359375,6.048000335693359,7.710000514984131,-0.10500000417232513
1784194468438902500,2.219902587890625,6.063000202178955,7.7059502601623535,-0.10500000417232513
1784194468448986400,2.229986328125,6.055050373077393,7.698000431060791,-0.10695000737905502
1784194468459070500,2.240070556640625,6.048000335693359,7.701000213623047,-0.10200000554323196
1784194468469154600,2.250154541015625,6.063000202178955,7.69605016708374,-0.11700000613927841
1784194468479238400,2.26023828125,6.070050239562988,7.698000431060791,-0.10200000554323196
1784194468489322500,2.270322509765625,6.052950382232666,7.693950176239014,-0.12195000797510147
1784194468499406600,2.280406494140625,6.064950466156006,7.69605016708374,-0.11700000613927841
1784194468509490700,2.29049072265625,6.070050239562988,7.69605016708374,-0.1290000081062317
1784194468519574800,2.30057470703125,6.051000118255615,7.7059502601623535,-0.12195000797510147
1784194468529658600,2.31065869140625,6.0769500732421875,7.713000297546387,-0.13095000386238098
1784194468539742700,2.32074267578125,6.0960001945495605,7.702950477600098,-0.15000000596046448
1784194468549826800,2.330826904296875,6.048000335693359,7.689000129699707,-0.12600000202655792
1784194468559910700,2.34091064453125,6.052950382232666,7.72005033493042,-0.1189500093460083
1784194468569994800,2.350994873046875,6.12000036239624,7.7059502601623535,-0.1290000081062317
1784194468580078800,2.361078857421875,6.072000503540039,7.69605016708374,-0.11400000751018524
1784194468590163000,2.371162841796875,6.000000476837158,7.710000514984131,-0.16500000655651093
1784194468600247000,2.3812470703125,6.130050182342529,7.7059502601623535,-0.10005000233650208
1784194468610331000,2.391330810546875,6.070050239562988,7.69605016708374,-0.11205000430345535
1784194468620415000,2.4014150390625,6.019050121307373,7.702950477600098,-0.14295001327991486
1784194468630499000,2.4114990234375,6.094050407409668,7.7059502601623535,-0.1189500093460083
1784194468640583000,2.4215830078125,6.0769500732421875,7.701000213623047,-0.10695000737905502
1784194468650667000,2.4316669921875,6.019050121307373,7.69605016708374,-0.11205000430345535
1784194468660751000,2.441751220703125,6.063000202178955,7.689000129699707,-0.14295001327991486
1784194468670835200,2.451835205078125,6.084000110626221,7.69605016708374,-0.1099500060081482
1784194468680919300,2.461919189453125,6.0169501304626465,7.690950393676758,-0.09300000220537186
1784194468691003400,2.47200341796875,6.0360002517700195,7.681950569152832,-0.12405000627040863
1784194468701087200,2.482087158203125,6.084000110626221,7.689000129699707,-0.12405000627040863
1784194468711171300,2.49217138671875,6.02400016784668,7.689000129699707,-0.10200000554323196
1784194468721255400,2.50225537109375,6.039000511169434,7.7059502601623535,-0.09000000357627869
1784194468731339500,2.512339599609375,6.103050231933594,7.701000213623047,-0.13395000994205475
1784194468741423600,2.522423583984375,6.043050289154053,7.7059502601623535,-0.11400000751018524
1784194468751507500,2.532507568359375,6.040950298309326,7.698000431060791,-0.0880500078201294
1784194468761591600,2.542591552734375,6.0960001945495605,7.722000598907471,-0.11400000751018524
1784194468771675600,2.552675537109375,6.097950458526611,7.729950428009033,-0.13395000994205475
1784194468781759500,2.562759521484375,6.046050071716309,7.722000598907471,-0.11205000430345535
1784194468791843600,2.572843505859375,6.082050323486328,7.72005033493042,-0.11700000613927841
1784194468801927700,2.582927734375,6.106050491333008,7.717950344085693,-0.1099500060081482
1784194468812011800,2.59301171875,6.055050373077393,7.722000598907471,-0.1380000114440918
1784194468822096000,2.603095947265625,6.0769500732421875,7.713000297546387,-0.11205000430345535
1784194468832179700,2.6131796875,6.084000110626221,7.713000297546387,-0.1099500060081482
1784194468842263800,2.623263916015625,6.058050155639648,7.7149505615234375,-0.1360500007867813
1784194468852347600,2.63334765625,6.055050373077393,7.69605016708374,-0.1290000081062317
1784194468862431700,2.643431640625,6.052950382232666,7.690950393676758,-0.13395000994205475
1784194468872515800,2.653515869140625,6.048000335693359,7.689000129699707,-0.1099500060081482
1784194468882600000,2.663599853515625,6.046050071716309,7.6870503425598145,-0.12405000627040863
1784194468892683800,2.673683837890625,6.039000511169434,7.6870503425598145,-0.13095000386238098
1784194468902767900,2.683767822265625,6.048000335693359,7.675050258636475,-0.12600000202655792
1784194468912852000,2.69385205078125,6.039000511169434,7.675050258636475,-0.11400000751018524
1784194468922936000,2.70393603515625,6.031050205230713,7.689000129699707,-0.1189500093460083
1784194468933020000,2.71402001953125,6.046050071716309,7.678950309753418,-0.14100000262260437
1784194468943104000,2.72410400390625,6.031050205230713,7.689000129699707,-0.1189500093460083
1784194468953188000,2.73418798828125,6.046050071716309,7.681950569152832,-0.12600000202655792
1784194468963272000,2.74427197265625,6.052950382232666,7.689000129699707,-0.12195000797510147
1784194468973356000,2.75435595703125,6.031050205230713,7.69605016708374,-0.1380000114440918
1784194468983440100,2.764440185546875,6.052950382232666,7.689000129699707,-0.11700000613927841
1784194468993524200,2.774524169921875,6.051000118255615,7.701000213623047,-0.12195000797510147
1784194469003608300,2.7846083984375,6.052950382232666,7.701000213623047,-0.10500000417232513
1784194469013692400,2.7946923828125,6.075000286102295,7.70805025100708,-0.12600000202655792
1784194469023776300,2.8047763671875,6.064950466156006,7.69605016708374,-0.1189500093460083
1784194469033860400,2.8148603515625,6.060000419616699,7.698000431060791,-0.10695000737905502
1784194469043944400,2.8249443359375,6.082050323486328,7.710000514984131,-0.10695000737905502
1784194469054028300,2.8350283203125,6.067050457000732,7.717950344085693,-0.09495000541210175
1784194469064112400,2.8451123046875,6.0769500732421875,7.713000297546387,-0.09795000404119492
1784194469074196200,2.8551962890625,6.079050064086914,7.717950344085693,-0.10500000417232513
1784194469084280300,2.8652802734375,6.060000419616699,7.717950344085693,-0.09795000404119492
1784194469094364400,2.875364501953125,6.094050407409668,7.717950344085693,-0.09300000220537186
1784194469104448500,2.885448486328125,6.075000286102295,7.72005033493042,-0.10005000233650208
1784194469114532600,2.89553271484375,6.067050457000732,7.710000514984131,-0.09300000220537186
1784194469124616400,2.905616455078125,6.0769500732421875,7.7059502601623535,-0.09795000404119492
1784194469134700500,2.915700439453125,6.070050239562988,7.7149505615234375,-0.10005000233650208
1784194469144784600,2.92578466796875,6.079050064086914,7.713000297546387,-0.10200000554323196
1784194469154868700,2.93586865234375,6.082050323486328,7.702950477600098,-0.1099500060081482
1784194469164952600,2.94595263671875,6.075000286102295,7.698000431060791,-0.11205000430345535
1784194469175036700,2.95603662109375,6.0769500732421875,7.698000431060791,-0.11400000751018524
1784194469185120800,2.966120849609375,6.075000286102295,7.684050559997559,-0.1290000081062317
1784194469195204900,2.976204833984375,6.072000503540039,7.684050559997559,-0.11700000613927841
1784194469205288700,2.986288818359375,6.072000503540039,7.684050559997559,-0.12600000202655792
1784194469215372800,2.996372802734375,6.079050064086914,7.678950309753418,-0.13395000994205475
1784194469225457000,3.006456787109375,6.075000286102295,7.681950569152832,-0.1290000081062317
1784194469235541000,3.016541015625,6.063000202178955,7.681950569152832,-0.13095000386238098
1784194469245625000,3.026625,6.060000419616699,7.689000129699707,-0.1360500007867813
1784194469255709000,3.036708984375,6.060000419616699,7.689000129699707,-0.12600000202655792
1784194469265793000,3.04679296875,6.055050373077393,7.678950309753418,-0.15000000596046448
1784194469275877000,3.056877197265625,6.048000335693359,7.684050559997559,-0.13095000386238098
1784194469285961200,3.066961181640625,6.067050457000732,7.689000129699707,-0.1380000114440918
1784194469296045300,3.07704541015625,6.043050289154053,7.693950176239014,-0.13395000994205475
1784194469306129400,3.08712939453125,6.0360002517700195,7.701000213623047,-0.14595000445842743
1784194469316213200,3.097213134765625,6.052950382232666,7.701000213623047,-0.13395000994205475
1784194469326297300,3.10729736328125,6.034050464630127,7.698000431060791,-0.13095000386238098
1784194469336381400,3.11738134765625,6.040950298309326,7.701000213623047,-0.1360500007867813
1784194469346465500,3.127465576171875,6.052950382232666,7.7059502601623535,-0.12195000797510147
1784194469356549400,3.13754931640625,6.034050464630127,7.7059502601623535,-0.1189500093460083
1784194469366633500,3.147633544921875,6.043050289154053,7.717950344085693,-0.1189500093460083
1784194469376717600,3.157717529296875,6.051000118255615,7.7149505615234375,-0.1189500093460083
1784194469386801700,3.1678017578125,6.048000335693359,7.725000381469727,-0.11205000430345535
1784194469396885500,3.177885498046875,6.052950382232666,7.722000598907471,-0.09000000357627869
1784194469406969600,3.187969482421875,6.051000118255615,7.7149505615234375,-0.11205000430345535
1784194469417053700,3.1980537109375,6.055050373077393,7.717950344085693,-0.09795000404119492
1784194469427137800,3.2081376953125,6.063000202178955,7.713000297546387,-0.0880500078201294
1784194469437221600,3.2182216796875,6.058050155639648,7.70805025100708,-0.08595000207424164
1784194469447305700,3.2283056640625,6.063000202178955,7.717950344085693,-0.0880500078201294
1784194469457389800,3.238389892578125,6.060000419616699,7.702950477600098,-0.09300000220537186
1784194469467473700,3.2484736328125,6.060000419616699,7.702950477600098,-0.07395000010728836
1784194469477557800,3.258557861328125,6.072000503540039,7.69605016708374,-0.08100000023841858
1784194469487641900,3.268641845703125,6.070050239562988,7.693950176239014,-0.07395000010728836
1784194469497726000,3.278725830078125,6.064950466156006,7.698000431060791,-0.0880500078201294
1784194469507810000,3.28881005859375,6.063000202178955,7.6870503425598145,-0.09000000357627869
1784194469517894000,3.298893798828125,6.064950466156006,7.690950393676758,-0.08295000344514847
1784194469527978000,3.30897802734375,6.070050239562988,7.6870503425598145,-0.10200000554323196
1784194469538062000,3.31906201171875,6.058050155639648,7.678950309753418,-0.1099500060081482
1784194469548146000,3.32914599609375,6.075000286102295,7.693950176239014,-0.1099500060081482
1784194469558230000,3.33922998046875,6.072000503540039,7.677000522613525,-0.12195000797510147
1784194469568314000,3.349314208984375,6.048000335693359,7.684050559997559,-0.11700000613927841
1784194469578398200,3.359398193359375,6.075000286102295,7.690950393676758,-0.13395000994205475
1784194469588482300,3.369482421875,6.072000503540039,7.690950393676758,-0.1189500093460083
1784194469598566100,3.379566162109375,6.058050155639648,7.693950176239014,-0.13095000386238098
1784194469608650200,3.389650146484375,6.063000202178955,7.698000431060791,-0.14595000445842743
1784194469618734300,3.399734375,6.075000286102295,7.701000213623047,-0.13395000994205475
1784194469628818400,3.409818359375,6.064950466156006,7.701000213623047,-0.14595000445842743
1784194469638902500,3.419902587890625,6.055050373077393,7.701000213623047,-0.14805001020431519
1784194469648986400,3.429986328125,6.072000503540039,7.70805025100708,-0.15300001204013824
1784194469659070500,3.440070556640625,6.052950382232666,7.7149505615234375,-0.14100000262260437
1784194469669154600,3.450154541015625,6.060000419616699,7.70805025100708,-0.1380000114440918
1784194469679238700,3.46023876953125,6.064950466156006,7.710000514984131,-0.14595000445842743
1784194469689322800,3.47032275390625,6.051000118255615,7.7059502601623535,-0.13095000386238098
1784194469699406800,3.48040673828125,6.052950382232666,7.7149505615234375,-0.1360500007867813
1784194469709490700,3.49049072265625,6.060000419616699,7.710000514984131,-0.14100000262260437
1784194469719574800,3.50057470703125,6.051000118255615,7.7149505615234375,-0.12195000797510147
1784194469729659000,3.510658935546875,6.055050373077393,7.70805025100708,-0.13395000994205475
1784194469739743000,3.520742919921875,6.063000202178955,7.701000213623047,-0.12600000202655792
1784194469749826800,3.530826904296875,6.052950382232666,7.698000431060791,-0.11700000613927841
1784194469759911000,3.540910888671875,6.052950382232666,7.698000431060791,-0.11700000613927841
1784194469769995000,3.5509951171875,6.060000419616699,7.698000431060791,-0.09795000404119492
1784194469780079000,3.5610791015625,6.064950466156006,7.693950176239014,-0.10500000417232513
1784194469790163200,3.5711630859375,6.051000118255615,7.690950393676758,-0.08295000344514847
1784194469800247000,3.5812470703125,6.051000118255615,7.693950176239014,-0.09795000404119492
1784194469810331100,3.5913310546875,6.070050239562988,7.69605016708374,-0.09795000404119492
1784194469820415200,3.601415283203125,6.064950466156006,7.69605016708374,-0.0880500078201294
1784194469830499300,3.611499267578125,6.060000419616699,7.69605016708374,-0.09000000357627869
1784194469840583200,3.621583251953125,6.055050373077393,7.689000129699707,-0.08295000344514847
1784194469850667300,3.631667236328125,6.058050155639648,7.690950393676758,-0.09000000357627869
1784194469860751400,3.64175146484375,6.051000118255615,7.698000431060791,-0.09795000404119492
1784194469870835500,3.65183544921875,6.067050457000732,7.702950477600098,-0.09300000220537186
1784194469880919600,3.66191943359375,6.067050457000732,7.698000431060791,-0.10005000233650208
1784194469891003400,3.67200341796875,6.060000419616699,7.690950393676758,-0.09795000404119492
1784194469901087500,3.68208740234375,6.060000419616699,7.702950477600098,-0.10695000737905502
1784194469911171600,3.692171630859375,6.075000286102295,7.710000514984131,-0.12195000797510147
1784194469921255700,3.702255615234375,6.067050457000732,7.713000297546387,-0.11205000430345535
1784194469931339500,3.712339599609375,6.070050239562988,7.7059502601623535,-0.12600000202655792
1784194469941423600,3.722423583984375,6.075000286102295,7.702950477600098,-0.12195000797510147
1784194469951507700,3.7325078125,6.058050155639648,7.713000297546387,-0.12405000627040863
1784194469961591800,3.742591796875,6.0769500732421875,7.7059502601623535,-0.14295001327991486
1784194469971675600,3.752675537109375,6.070050239562988,7.702950477600098,-0.1380000114440918
1784194469981759700,3.762759765625,6.052950382232666,7.701000213623047,-0.14295001327991486
1784194469991843800,3.77284375,6.063000202178955,7.7059502601623535,-0.14100000262260437
1784194470001928000,3.782927978515625,6.064950466156006,7.69605016708374,-0.15000000596046448
1784194470012012000,3.793011962890625,6.051000118255615,7.710000514984131,-0.15300001204013824
1784194470022096000,3.803095947265625,6.051000118255615,7.701000213623047,-0.1099500060081482
1784194470032180000,3.813179931640625,6.015000343322754,7.629000186920166,-0.16005000472068787
1784194470042264000,3.82326416015625,6.067050457000732,7.746000289916992,-0.1360500007867813
1784194470052348200,3.83334814453125,6.109950065612793,7.6870503425598145,-0.17205001413822174
1784194470062432300,3.843432373046875,5.94795036315918,7.6080002784729,-0.034950003027915955
1784194470072516000,3.85351611328125,6.082050323486328,7.762950420379639,-0.21300001442432404
1784194470082600200,3.86360009765625,6.1650004386901855,7.654950141906738,-0.05895000323653221
1784194470092684300,3.873684326171875,5.920950412750244,7.6650004386901855,-0.17205001413822174
1784194470102768000,3.88376806640625,6.097950458526611,7.73205041885376,0.016050001606345177
1784194470112852200,3.893852294921875,6.109950065612793,7.677000522613525,-0.2460000067949295
1784194470122936300,3.903936279296875,6.02400016784668,7.698000431060791,-0.032999999821186066
1784194470133020200,3.914020263671875,6.046050071716309,7.70805025100708,-0.05505000427365303
1784194470143104300,3.924104248046875,6.1080002784729,7.698000431060791,-0.14295001327991486
1784194470153188400,3.934188232421875,6.1080002784729,7.7440505027771,-0.07905000448226929
1784194470163272400,3.9442724609375,6.004950523376465,7.701000213623047,-0.12405000627040863
1784194470173356300,3.954356201171875,6.075000286102295,7.726950168609619,0.013950000517070293
1784194470183440400,3.9644404296875,6.172950267791748,7.741950511932373,-0.2050500065088272
1784194470193524500,3.9745244140625,5.974050521850586,7.72005033493042,-0.04005000367760658
1784194470203608600,3.984608642578125,6.070050239562988,7.734000205993652,-0.14595000445842743
1784194470213692700,3.994692626953125,6.1870503425598145,7.729950428009033,-0.022950001060962677
1784194470223776500,4.004776611328125,5.991000175476074,7.710000514984131,-0.14595000445842743
1784194470233860600,4.014860595703125,6.051000118255615,7.713000297546387,-0.16695000231266022
1784194470243944700,4.02494482421875,6.151050090789795,7.7059502601623535,-0.04005000367760658
1784194470254028800,4.03502880859375,6.034050464630127,7.677000522613525,-0.16200000047683716
1784194470264112600,4.045112548828125,6.028950214385986,7.701000213623047,-0.1290000081062317
1784194470274196700,4.05519677734375,6.1080002784729,7.675050258636475,-0.15300001204013824
1784194470284280800,4.06528076171875,6.040950298309326,7.6650004386901855,-0.14100000262260437
1784194470294365000,4.075364990234375,6.02400016784668,7.666950225830078,-0.10695000737905502
1784194470304449000,4.085448974609375,6.0360002517700195,7.657950401306152,-0.2050500065088272
1784194470314532900,4.095532958984375,6.072000503540039,7.666950225830078,-0.14100000262260437
1784194470324617000,4.105616943359375,6.031050205230713,7.660050392150879,-0.14295001327991486
1784194470334701000,4.115701171875,5.991000175476074,7.666950225830078,-0.15300001204013824
1784194470344785200,4.12578515625,6.106050491333008,7.681950569152832,-0.1770000010728836
1784194470354869000,4.135868896484375,6.040950298309326,7.684050559997559,-0.15300001204013824
1784194470364953000,4.145953125,5.998050212860107,7.689000129699707,-0.1360500007867813
1784194470375037200,4.156037109375,6.106050491333008,7.7149505615234375,-0.13395000994205475
1784194470385121300,4.166121337890625,6.064950466156006,7.70805025100708,-0.15495000779628754
1784194470395205400,4.176205322265625,6.034050464630127,7.729950428009033,-0.1360500007867813
1784194470405289500,4.18628955078125,6.097950458526611,7.73205041885376,-0.09795000404119492
1784194470415373600,4.19637353515625,6.084000110626221,7.737000465393066,-0.1290000081062317
1784194470425457400,4.20645751953125,6.064950466156006,7.753950595855713,-0.1189500093460083
1784194470435541500,4.21654150390625,6.051000118255615,7.746000289916992,-0.11700000613927841
1784194470445625600,4.22662548828125,6.0859503746032715,7.749000549316406,-0.10005000233650208
1784194470455709700,4.236709716796875,6.0769500732421875,7.738950252532959,-0.08595000207424164
1784194470465793800,4.246793701171875,6.02400016784668,7.725000381469727,-0.10500000417232513
1784194470475877600,4.256877685546875,6.084000110626221,7.72005033493042,-0.09300000220537186
1784194470485961700,4.266961669921875,6.0769500732421875,7.7059502601623535,-0.06405000388622284
1784194470496045800,4.2770458984375,6.015000343322754,7.693950176239014,-0.07605000585317612
1784194470506130000,4.2871298828125,6.060000419616699,7.693950176239014,-0.07605000585317612
1784194470516214000,4.297214111328125,6.070050239562988,7.681950569152832,-0.07605000585317612
1784194470526298000,4.307298095703125,6.007050514221191,7.675050258636475,-0.06405000388622284
1784194470536382200,4.31738232421875,6.0360002517700195,7.669950485229492,-0.0690000057220459
1784194470546466300,4.32746630859375,6.072000503540039,7.663050174713135,-0.08100000023841858
1784194470556550100,4.337550048828125,6.048000335693359,7.660050392150879,-0.07395000010728836
1784194470566634000,4.347634033203125,6.034050464630127,7.669950485229492,-0.07905000448226929
1784194470576718000,4.357718017578125,6.075000286102295,7.657950401306152,-0.0690000057220459
1784194470586802200,4.36780224609375,6.072000503540039,7.669950485229492,-0.09300000220537186
1784194470596886300,4.37788623046875,6.043050289154053,7.678950309753418,-0.10005000233650208
1784194470606970400,4.387970458984375,6.0859503746032715,7.677000522613525,-0.07905000448226929
1784194470617054200,4.39805419921875,6.088950157165527,7.701000213623047,-0.10500000417232513
1784194470627138300,4.40813818359375,6.058050155639648,7.69605016708374,-0.1189500093460083
1784194470637222400,4.418222412109375,6.091050148010254,7.7059502601623535,-0.1189500093460083
1784194470647306500,4.428306396484375,6.106050491333008,7.710000514984131,-0.1290000081062317
1784194470657390300,4.438390380859375,6.052950382232666,7.713000297546387,-0.1360500007867813
1784194470667474400,4.448474365234375,6.084000110626221,7.717950344085693,-0.1380000114440918
1784194470677558500,4.45855859375,6.094050407409668,7.717950344085693,-0.15300001204013824
1784194470687642600,4.468642578125,6.060000419616699,7.713000297546387,-0.1579500138759613
1784194470697726700,4.478726806640625,6.052950382232666,7.722000598907471,-0.17205001413822174
1784194470707810600,4.488810546875,6.063000202178955,7.7059502601623535,-0.1579500138759613
1784194470717894700,4.498894775390625,6.058050155639648,7.713000297546387,-0.17400000989437103
1784194470727978800,4.508978759765625,6.043050289154053,7.7149505615234375,-0.16695000231266022
1784194470738062800,4.519062744140625,6.043050289154053,7.70805025100708,-0.18105000257492065
1784194470748146700,4.529146728515625,6.063000202178955,7.702950477600098,-0.17400000989437103
1784194470758230800,4.539230712890625,6.039000511169434,7.7059502601623535,-0.16200000047683716
1784194470768315000,4.54931494140625,6.043050289154053,7.69605016708374,-0.17205001413822174
1784194470778399000,4.55939892578125,6.055050373077393,7.698000431060791,-0.15495000779628754
1784194470788483000,4.569483154296875,6.040950298309326,7.690950393676758,-0.16905000805854797
1784194470798567000,4.57956689453125,6.031050205230713,7.689000129699707,-0.16200000047683716
1784194470808651000,4.589651123046875,6.063000202178955,7.693950176239014,-0.1360500007867813
1784194470818735000,4.599735107421875,6.055050373077393,7.690950393676758,-0.14100000262260437
1784194470828819200,4.609819091796875,6.048000335693359,7.69605016708374,-0.12405000627040863
1784194470838903300,4.6199033203125,6.067050457000732,7.6870503425598145,-0.11700000613927841
1784194470848987400,4.6299873046875,6.070050239562988,7.690950393676758,-0.1099500060081482
1784194470859071200,4.6400712890625,6.072000503540039,7.69605016708374,-0.09000000357627869
1784194470869155300,4.6501552734375,6.063000202178955,7.698000431060791,-0.09795000404119492
1784194470879239400,4.660239501953125,6.084000110626221,7.69605016708374,-0.07605000585317612
1784194470889323500,4.670323486328125,6.075000286102295,7.689000129699707,-0.07395000010728836
1784194470899407400,4.680407470703125,6.058050155639648,7.690950393676758,-0.0690000057220459
1784194470909491500,4.690491455078125,6.0859503746032715,7.701000213623047,-0.05205000191926956
1784194470919575600,4.700575439453125,6.079050064086914,7.690950393676758,-0.0499500036239624
1784194470929659600,4.71065966796875,6.052950382232666,7.698000431060791,-0.05895000323653221
1784194470939743700,4.72074365234375,6.058050155639648,7.69605016708374,-0.05205000191926956
1784194470949827600,4.73082763671875,6.060000419616699,7.701000213623047,-0.05700000375509262
1784194470959911700,4.74091162109375,6.058050155639648,7.746000289916992,-0.07605000585317612
1784194470969995800,4.750995849609375,6.040950298309326,7.581000328063965,-0.14100000262260437
1784194470980079900,4.761079833984375,5.926050186157227,7.809000492095947,-0.21495001018047333
1784194470990163700,4.771163818359375,6.181950092315674,7.7560505867004395,0.0690000057220459
1784194471000247800,4.781247802734375,6.156000137329102,7.617000579833984,0.3630000054836273
1784194471010332000,4.791331787109375,5.9239501953125,7.677000522613525,-0.2749500274658203
1784194471020416000,4.801416015625,5.9599504470825195,7.7560505867004395,-0.4420500099658966
1784194471030500000,4.8115,6.1080002784729,7.693950176239014,0.08295000344514847
1784194471040584000,4.821583984375,6.070050239562988,7.681950569152832,0.08595000207424164
1784194471050668000,4.83166796875,5.962050437927246,7.797000408172607,-0.16905000805854797
1784194471060752100,4.841752197265625,6.189000129699707,7.552050590515137,-0.8850000500679016
1784194471070836200,4.851836181640625,5.602950096130371,7.852050304412842,0.19095000624656677
1784194471080920000,4.861920166015625,6.562950134277344,7.624050140380859,0.1770000010728836
1784194471091004200,4.872004150390625,5.964000225067139,7.804050445556641,0.15300001204013824
1784194471101088000,4.882087890625,5.952000141143799,7.651050567626953,-0.598050057888031
1784194471111172000,4.892172119140625,6.064950466156006,7.681950569152832,-0.30105000734329224
1784194471121256400,4.90225634765625,6.109950065612793,7.738950252532959,0.004050000105053186
1784194471131340300,4.91234033203125,6.130050182342529,7.6870503425598145,0.032999999821186066
1784194471141424400,4.92242431640625,6.015000343322754,7.684050559997559,-0.3559500277042389
1784194471151508500,4.932508544921875,6.052950382232666,7.7149505615234375,-0.3559500277042389
1784194471161592300,4.94259228515625,6.094050407409668,7.681950569152832,0.09300000220537186
1784194471181760500,4.962760498046875,6.015000343322754,7.690950393676758,-0.33705002069473267
1784194471191844600,4.9728447265625,6.052950382232666,7.681950569152832,-0.2050500065088272
1784194471201928700,4.9829287109375,6.121950149536133,7.675050258636475,0.032999999821186066
1784194471212012800,4.9930126953125,6.079050064086914,7.663050174713135,-0.08595000207424164
1784194471222097000,5.003096923828125,6.000000476837158,7.690950393676758,-0.3060000240802765
1784194471232180700,5.0131806640625,6.060000419616699,7.684050559997559,-0.1099500060081482
1784194471242264800,5.023264892578125,6.106050491333008,7.681950569152832,0.010950000956654549
1784194471252349000,5.033348876953125,6.060000419616699,7.690950393676758,-0.10695000737905502
1784194471262433000,5.04343310546875,6.02400016784668,7.7059502601623535,-0.18105000257492065
1784194471272517000,5.05351708984375,6.039000511169434,7.710000514984131,-0.07095000147819519
1784194471282601000,5.06360107421875,6.070050239562988,7.717950344085693,-0.0019500000635161996
1784194471292685300,5.073685302734375,6.046050071716309,7.726950168609619,-0.11700000613927841
1784194471302769200,5.08376904296875,6.010050296783447,7.717950344085693,-0.14100000262260437
1784194471312853200,5.093853271484375,6.060000419616699,7.734000205993652,-0.025950001552700996
1784194471322937300,5.103937255859375,6.082050323486328,7.73205041885376,-0.028050001710653305
1784194471333021400,5.114021484375,6.0360002517700195,7.726950168609619,-0.0880500078201294
1784194471343105300,5.124105224609375,6.048000335693359,7.726950168609619,-0.12600000202655792
1784194471353189400,5.134189453125,6.055050373077393,7.753950595855713,-0.05205000191926956
1784194471363273500,5.1442734375,6.094050407409668,7.693950176239014,-0.06195000186562538
1784194471373357600,5.154357666015625,5.983950138092041,7.677000522613525,-0.1189500093460083
1784194471383441700,5.164441650390625,5.905050277709961,7.584000587463379,-0.37095001339912415
1784194471393525500,5.174525390625,6.240000247955322,7.629000186920166,0.19305001199245453
1784194471403609600,5.184609619140625,6.02400016784668,7.82295036315918,0.016050001606345177
1784194471413693700,5.194693603515625,6.019050121307373,7.741950511932373,-0.33195000886917114
1784194471423777500,5.204777587890625,6.064950466156006,7.690950393676758,-0.04500000178813934
1784194471433861600,5.214861572265625,6.124950408935547,7.630950450897217,-0.06195000186562538
1784194471443945700,5.22494580078125,6.000000476837158,7.734000205993652,-0.07395000010728836
1784194471454029800,5.23502978515625,6.091050148010254,7.651050567626953,-0.1789500117301941
1784194471464113700,5.24511376953125,6.040950298309326,7.693950176239014,-0.14805001020431519
1784194471474197800,5.25519775390625,6.052950382232666,7.6650004386901855,-0.031050002202391624
1784194471484281900,5.26528173828125,6.064950466156006,7.717950344085693,-0.12600000202655792
1784194471494366000,5.275365966796875,6.0769500732421875,7.672050476074219,-0.17400000989437103
1784194471504450000,5.285449951171875,6.01200008392334,7.7059502601623535,-0.14295001327991486
1784194471514534100,5.2955341796875,6.067050457000732,7.689000129699707,-0.10500000417232513
1784194471524618000,5.305617919921875,6.079050064086914,7.713000297546387,-0.10500000417232513
1784194471534702000,5.3157021484375,6.043050289154053,7.698000431060791,-0.20295001566410065
1784194471544786200,5.3257861328125,6.028950214385986,7.70805025100708,-0.1360500007867813
1784194471554870300,5.335870361328125,6.079050064086914,7.70805025100708,-0.10695000737905502
1784194471564954400,5.345954345703125,6.064950466156006,7.717950344085693,-0.14595000445842743
1784194471575038200,5.3560380859375,6.0360002517700195,7.72005033493042,-0.1770000010728836
1784194471585122300,5.366122314453125,6.064950466156006,7.710000514984131,-0.14100000262260437
1784194471595206400,5.376206298828125,6.079050064086914,7.710000514984131,-0.10695000737905502
1784194471605290500,5.38629052734375,6.055050373077393,7.70805025100708,-0.15495000779628754
1784194471615374300,5.396374267578125,6.039000511169434,7.710000514984131,-0.15495000779628754
1784194471625458400,5.40645849609375,6.0769500732421875,7.70805025100708,-0.11700000613927841
1784194471635542500,5.41654248046875,6.0769500732421875,7.710000514984131,-0.12405000627040863
1784194471645626600,5.426626708984375,6.052950382232666,7.693950176239014,-0.14100000262260437
1784194471655710500,5.43671044921875,6.072000503540039,7.702950477600098,-0.12405000627040863
1784194471665794600,5.446794677734375,6.072000503540039,7.701000213623047,-0.11205000430345535
1784194471675878700,5.456878662109375,6.154050350189209,7.531050205230713,-0.16500000655651093
1784194471685962800,5.466962646484375,5.872950077056885,7.845000267028809,-0.0070500001311302185
1784194471696046800,5.477046875,6.217950344085693,7.725000381469727,-0.28005000948905945
1784194471706130700,5.487130615234375,5.998050212860107,7.6870503425598145,0.1290000081062317
1784194471716214800,5.49721484375,6.067050457000732,7.653000354766846,-0.286950021982193
1784194471726299000,5.507298828125,5.919000148773193,7.681950569152832,-0.037950001657009125
1784194471736383000,5.517383056640625,6.478950500488281,8.272950172424316,-0.3060000240802765
1784194471746467000,5.527467041015625,5.659950256347656,7.099950313568115,0.24795001745224
1784194471756551000,5.537551025390625,5.983950138092041,7.617000579833984,-0.16500000655651093
1784194471766635000,5.547635009765625,6.51300048828125,8.51294994354248,-0.33195000886917114
1784194471776719000,5.557718994140625,5.8060503005981445,6.573000431060791,-0.2530499994754791
1784194471786803200,5.56780322265625,6.0769500732421875,7.633950233459473,0.5020500421524048
1784194471796887300,5.57788720703125,6.256050109863281,8.08395004272461,-0.556950032711029
1784194471806971100,5.58797119140625,5.782050132751465,7.933050155639648,0.18405000865459442
1784194471817055200,5.59805517578125,6.000000476837158,7.521000385284424,-0.226950004696846
1784194471827139300,5.608139404296875,6.097950458526611,7.729950428009033,0.07605000585317612
1784194471837223400,5.618223388671875,6.121950149536133,7.753950595855713,-0.3040500283241272
1784194471847307300,5.628307373046875,5.967000484466553,7.717950344085693,-0.07905000448226929
1784194471857391400,5.638391357421875,6.1180500984191895,7.678950309753418,-0.05895000323653221
1784194471867475500,5.648475341796875,6.067050457000732,7.7560505867004395,-0.16500000655651093
1784194471877559600,5.6585595703125,6.02400016784668,7.734000205993652,-0.13395000994205475
1784194471887643600,5.6686435546875,6.055050373077393,7.693950176239014,-0.12195000797510147
1784194471897727700,5.678727783203125,6.0769500732421875,7.7059502601623535,-0.10005000233650208
1784194471907811600,5.6888115234375,6.034050464630127,7.713000297546387,-0.13095000386238098
1784194471917895700,5.698895751953125,6.0360002517700195,7.701000213623047,-0.1290000081062317
1784194471927979800,5.708979736328125,6.070050239562988,7.6870503425598145,-0.1099500060081482
1784194471938064000,5.71906396484375,6.052950382232666,7.701000213623047,-0.1099500060081482
1784194471948147700,5.729147705078125,6.055050373077393,7.701000213623047,-0.13095000386238098
1784194471958231800,5.739231689453125,6.0360002517700195,7.70805025100708,-0.1380000114440918
1784194471968316000,5.74931591796875,6.060000419616699,7.6870503425598145,-0.11400000751018524
1784194471978400000,5.75939990234375,6.052950382232666,7.701000213623047,-0.12600000202655792
1784194471988484000,5.769484130859375,6.048000335693359,7.69605016708374,-0.12405000627040863
1784194471998568000,5.77956787109375,6.046050071716309,7.710000514984131,-0.14805001020431519
1784194472008652000,5.789652099609375,6.064950466156006,7.698000431060791,-0.10695000737905502
1784194472018736000,5.799736083984375,6.063000202178955,7.698000431060791,-0.1290000081062317
1784194472028820200,5.8098203125,6.040950298309326,7.701000213623047,-0.13095000386238098
1784194472038904000,5.819904052734375,6.067050457000732,7.701000213623047,-0.13395000994205475
1784194472048988200,5.82998828125,6.070050239562988,7.69605016708374,-0.1189500093460083
1784194472059072300,5.840072265625,6.052950382232666,7.702950477600098,-0.12600000202655792
1784194472069156400,5.85015625,6.075000286102295,7.717950344085693,-0.14595000445842743
1784194472079240400,5.860240478515625,6.060000419616699,7.701000213623047,-0.1099500060081482
1784194472089324300,5.87032421875,6.060000419616699,7.702950477600098,-0.12600000202655792
1784194472099408400,5.880408447265625,6.067050457000732,7.701000213623047,-0.11400000751018524
1784194472109492500,5.890492431640625,6.058050155639648,7.702950477600098,-0.1189500093460083
1784194472119576600,5.90057666015625,6.063000202178955,7.70805025100708,-0.12405000627040863
1784194472129660700,5.91066064453125,6.064950466156006,7.70805025100708,-0.10695000737905502
1784194472139744500,5.92074462890625,6.060000419616699,7.702950477600098,-0.1189500093460083
1784194472149828600,5.93082861328125,6.046050071716309,7.698000431060791,-0.1099500060081482
1784194472159912700,5.94091259765625,6.055050373077393,7.698000431060791,-0.11205000430345535
1784194472169996800,5.950996826171875,6.063000202178955,7.702950477600098,-0.10200000554323196
1784194472180081000,5.961080810546875,6.058050155639648,7.702950477600098,-0.1099500060081482
1784194472190165000,5.9711650390625,6.040950298309326,7.70805025100708,-0.10500000417232513
1784194472200248800,5.981248779296875,6.058050155639648,7.698000431060791,-0.09000000357627869
1784194472210333000,5.9913330078125,6.058050155639648,7.7059502601623535,-0.11400000751018524
1784194472220417000,6.0014169921875,6.051000118255615,7.702950477600098,-0.09495000541210175
1784194472230501000,6.011501220703125,6.060000419616699,7.702950477600098,-0.10200000554323196
1784194472240585000,6.0215849609375,6.051000118255615,7.702950477600098,-0.08595000207424164
1784194472250669000,6.0316689453125,6.048000335693359,7.690950393676758,-0.11700000613927841
1784194472260753200,6.041753173828125,6.043050289154053,7.6870503425598145,-0.10005000233650208
1784194472270837200,6.051837158203125,6.043050289154053,7.6870503425598145,-0.10695000737905502
1784194472280921300,6.06192138671875,6.060000419616699,7.7149505615234375,-0.12195000797510147
1784194472291005200,6.072005126953125,6.0360002517700195,7.69605016708374,-0.11205000430345535
1784194472301089300,6.08208935546875,6.0360002517700195,7.701000213623047,-0.1189500093460083
1784194472311173400,6.09217333984375,6.055050373077393,7.710000514984131,-0.09000000357627869
1784194472321257500,6.102257568359375,6.060000419616699,7.698000431060791,-0.1360500007867813
1784194472331341600,6.112341552734375,6.028950214385986,7.689000129699707,-0.10695000737905502
1784194472341425400,6.12242529296875,6.103050231933594,7.672050476074219,-0.14805001020431519
1784194472351509500,6.132509521484375,6.079050064086914,7.770000457763672,-0.16905000805854797
1784194472361593600,6.142593505859375,6.0360002517700195,7.7659502029418945,-0.08595000207424164
1784194472371677700,6.152677734375,6.015000343322754,7.504950523376465,-0.05895000323653221
1784194472381761500,6.162761474609375,5.392050266265869,8.038050651550293,-0.2440500110387802
1784194472391845600,6.172845703125,6.781050205230713,8.260950088500977,-0.14295001327991486
1784194472401929700,6.1829296875,6.520050525665283,7.6050004959106445,-0.1980000138282776
1784194472412013800,6.193013916015625,3.9840002059936523,7.459050178527832,0.12195000797510147
1784194472422098000,6.203097900390625,6.903000354766846,8.98905086517334,-0.5719500184059143
1784194472432181800,6.213181640625,5.9569501876831055,7.311000347137451,0.41100001335144043
1784194472442265900,6.223265869140625,4.912950038909912,8.776050567626953,-0.6150000095367432
1784194472452350000,6.233349853515625,5.791950225830078,7.792050361633301,0.016050001606345177
1784194472462434000,6.24343408203125,6.304050445556641,8.131950378417969,-0.5359500050544739
1784194472472518100,6.25351806640625,5.914050102233887,7.492950439453125,0.39195001125335693
1784194472482602000,6.26360205078125,5.119050025939941,8.568000793457031,-0.48600003123283386
1784194472492686300,6.273686279296875,6.345000267028809,7.567050457000732,0.5500500202178955
1784194472502770200,6.283770263671875,5.952000141143799,8.059950828552246,-1.0579500198364258
1784194472512854300,6.293854248046875,4.786050319671631,7.7560505867004395,0.8280000686645508
1784194472522938400,6.3039384765625,6.184950351715088,8.082000732421875,-0.9139500260353088
1784194472533022500,6.3140224609375,5.863950252532959,7.785000324249268,0.14295001327991486
1784194472543106600,6.3241064453125,5.670000076293945,7.998000144958496,0.021000001579523087
1784194472553190400,6.3341904296875,5.715000152587891,7.867950439453125,-0.4350000321865082
1784194472563274500,6.3442744140625,5.839950084686279,7.990950584411621,-0.0019500000635161996
1784194472573358600,6.354358642578125,5.665050506591797,7.7989501953125,-0.22005000710487366
1784194472583442700,6.364442626953125,5.5600504875183105,7.954950332641602,0.05505000427365303
1784194472593526800,6.37452685546875,5.814000129699707,7.999950408935547,-0.23205001652240753
1784194472603611000,6.38461083984375,5.641050338745117,7.939950466156006,-0.2370000183582306
1784194472613694700,6.39469482421875,5.686950206756592,7.926000595092773,-0.031050002202391624
1784194472623778800,6.40477880859375,5.731950283050537,7.9830002784729,-0.2939999997615814
1784194472633863000,6.41486279296875,5.658000469207764,7.900050163269043,-0.06705000251531601
1784194472643946800,6.42494677734375,5.605050086975098,7.962000370025635,-0.15495000779628754
1784194472654030800,6.43503076171875,5.662950038909912,7.91895055770874,-0.22005000710487366
1784194472664115000,6.445114990234375,5.632050037384033,7.981050491333008,-0.034950003027915955
1784194472674199000,6.455198974609375,5.718000411987305,7.830000400543213,-0.3750000298023224
1784194472684283100,6.465283203125,5.644050121307373,8.035950660705566,0.11700000613927841
1784194472694367200,6.4753671875,5.265000343322754,7.737000465393066,-0.45900002121925354
1784194472704451300,6.485451416015625,6.345000267028809,8.175000190734863,0.12195000797510147
1784194472714535200,6.49553515625,5.265000343322754,7.7440505027771,-0.3349500298500061
1784194472724619300,6.505619384765625,5.3710503578186035,7.951950550079346,-0.0880500078201294
1784194472734703400,6.515703369140625,6.02400016784668,7.939950466156006,-0.22500000894069672
1784194472744787500,6.525787353515625,5.782050132751465,7.930950164794922,-0.07905000448226929
1784194472754871600,6.53587158203125,5.146050453186035,7.9830002784729,-0.1579500138759613
1784194472764955600,6.54595556640625,5.928000450134277,8.011950492858887,-0.18105000257492065
1784194472775039500,6.55603955078125,5.895000457763672,7.942950248718262,-0.19305001199245453
1784194472785123600,6.56612353515625,5.284050464630127,7.978950500488281,-0.11700000613927841
1784194472795207700,6.576207763671875,5.494950294494629,8.074049949645996,-0.25095000863075256
1784194472805291800,6.586291748046875,5.93595027923584,8.047950744628906,0.022950001060962677
1784194472815376000,6.5963759765625,5.442000389099121,8.055000305175781,-0.361050009727478
1784194472825459700,6.606459716796875,5.304000377655029,8.11305046081543,0.05205000191926956
1784194472835543800,6.616543701171875,5.887950420379639,8.107950210571289,-0.38700002431869507
1784194472845628000,6.6266279296875,5.485950469970703,8.173049926757812,-0.028050001710653305
1784194472855712000,6.6367119140625,5.244000434875488,8.151000022888184,-0.2440500110387802
1784194472865796000,6.646796142578125,5.485950469970703,8.239950180053711,-0.13395000994205475
1784194472875880000,6.6568798828125,5.605050086975098,8.170050621032715,-0.14595000445842743
1784194472885964000,6.666964111328125,5.232000350952148,8.211000442504883,-0.30105000734329224
1784194472896047900,6.6770478515625,5.356050491333008,8.239950180053711,-0.0499500036239624
1784194472906132200,6.68713232421875,5.5980000495910645,8.284950256347656,-0.4140000343322754
1784194472916216000,6.697216064453125,5.236950397491455,8.295000076293945,0.010950000956654549
1784194472926300200,6.707300048828125,5.196000099182129,8.314050674438477,-0.3679500222206116
1784194472936384300,6.71738427734375,5.362950325012207,8.311050415039062,-0.08100000023841858
1784194472946468400,6.72746826171875,5.305950164794922,8.308950424194336,-0.40905001759529114
1784194472956552400,6.737552490234375,5.155050277709961,8.380949974060059,-0.16905000805854797
1784194472966636300,6.74763623046875,5.19795036315918,8.37600040435791,-0.2560500204563141
1784194472976720400,6.757720458984375,5.296050071716309,8.437950134277344,-0.3060000240802765
1784194472986804500,6.767804443359375,5.043000221252441,8.398050308227539,-0.23895001411437988
1784194472996888600,6.777888671875,5.055000305175781,8.449950218200684,-0.32805001735687256
1784194473006972400,6.787972412109375,5.18595027923584,8.452950477600098,-0.21495001018047333
1784194473017056500,6.798056396484375,5.0620503425598145,8.473950386047363,-0.39705002307891846
1784194473027140600,6.808140625,4.944000244140625,8.484000205993652,-0.2580000162124634
1784194473037224700,6.818224609375,5.101950168609619,8.551050186157227,-0.35895001888275146
1784194473047308800,6.828308837890625,4.947000026702881,8.520000457763672,-0.2580000162124634
1784194473057393000,6.838392822265625,4.920000076293945,8.557950019836426,-0.4159500300884247
1784194473067476700,6.848476806640625,4.888950347900391,8.572050094604492,-0.2959500253200531
1784194473077560800,6.858560791015625,4.906050205230713,8.568000793457031,-0.39195001125335693
1784194473087645000,6.86864501953125,4.840950012207031,8.63700008392334,-0.3559500277042389
1784194473097729000,6.87872900390625,4.755000114440918,8.620050430297852,-0.39195001125335693
1784194473107813000,6.888813232421875,4.783950328826904,8.66100025177002,-0.4210500121116638
1784194473117897200,6.898897216796875,4.690950393676758,8.733000755310059,-0.3040500283241272
1784194473127981000,6.90898095703125,4.627950191497803,8.769000053405762,-0.4740000367164612
1784194473138065200,6.919065185546875,4.591950416564941,8.824049949645996,-0.45000001788139343
1784194473148149200,6.929149169921875,4.53000020980835,8.857050895690918,-0.37095001339912415
1784194473158233300,6.9392333984375,4.509000301361084,8.890950202941895,-0.49695003032684326
1784194473168317400,6.9493173828125,4.504050254821777,8.91195011138916,-0.37800002098083496
1784194473178401300,6.9594013671875,4.44195032119751,8.898000717163086,-0.4930500090122223
1784194473188485400,6.9694853515625,4.387050151824951,8.922000885009766,-0.45900002121925354
1784194473198569500,6.979569580078125,4.401000022888184,8.94795036315918,-0.3630000054836273
1784194473208653600,6.989653564453125,4.377000331878662,8.97705078125,-0.547950029373169
1784194473218737700,6.999737548828125,4.308000087738037,8.994000434875488,-0.3630000054836273
1784194473228821800,7.00982177734375,4.3030500411987305,8.9839506149292,-0.4639500081539154
1784194473238905900,7.01990576171875,4.305000305175781,8.97195053100586,-0.3750000298023224
1784194473248989700,7.02998974609375,4.269000053405762,8.97705078125,-0.3630000054836273
1784194473259073800,7.04007373046875,4.267050266265869,9.003000259399414,-0.4620000123977661
1784194473269158000,7.050157958984375,4.260000228881836,8.979000091552734,-0.28395000100135803
1784194473279242000,7.060241943359375,4.228950023651123,8.98905086517334,-0.4519500136375427
1784194473289326000,7.070326171875,4.176000118255615,8.974950790405273,-0.3060000240802765
1784194473299410200,7.08041015625,4.219050407409668,8.982000350952148,-0.39705002307891846
1784194473309494300,7.090494384765625,4.213950157165527,8.998950004577637,-0.3079500198364258
1784194473319578000,7.100578125,4.129950046539307,8.998950004577637,-0.3349500298500061
1784194473329662200,7.110662109375,4.152000427246094,9.010950088500977,-0.3660000264644623
1784194473339746300,7.120746337890625,4.1419501304626465,8.97195053100586,-0.30105000734329224
1784194473349830400,7.130830322265625,4.159049987792969,8.982000350952148,-0.32295000553131104
1784194473359914500,7.14091455078125,4.120950222015381,8.97705078125,-0.2939999997615814
1784194473369998600,7.15099853515625,4.1419501304626465,8.96505069732666,-0.37095001339912415
1784194473380082400,7.16108251953125,4.114050388336182,8.95305061340332,-0.25095000863075256
1784194473390166500,7.17116650390625,4.0920000076293945,8.970000267028809,-0.3750000298023224
1784194473400250600,7.181250732421875,4.135050296783447,8.98905086517334,-0.28005000948905945
1784194473410334700,7.191334716796875,4.080000400543213,8.955000877380371,-0.31095001101493835
1784194473420418800,7.201418701171875,4.03695011138916,8.96505069732666,-0.3130500018596649
1784194473430502700,7.211502685546875,4.080000400543213,8.958000183105469,-0.3130500018596649
1784194473440587000,7.2215869140625,4.099050045013428,8.974950790405273,-0.38700002431869507
1784194473450670800,7.2316708984375,4.030050277709961,8.97705078125,-0.20805001258850098
1784194473460755000,7.2417548828125,4.066050052642822,8.95995044708252,-0.4639500081539154
1784194473470839000,7.251839111328125,4.066050052642822,8.974950790405273,-0.13395000994205475
1784194473480923100,7.261923095703125,4.059000015258789,8.979000091552734,-0.5260500311851501
1784194473491007200,7.27200732421875,4.0920000076293945,9.015000343322754,-0.1770000010728836
1784194473501091300,7.28209130859375,4.102050304412842,8.98905086517334,-0.34905001521110535
1784194473511175400,7.292175537109375,4.047000408172607,9.034049987792969,-0.4540500342845917
1784194473521259300,7.30225927734375,4.018050193786621,9.010950088500977,-0.14295001327991486
1784194473531343400,7.31234326171875,4.200000286102295,9.070050239562988,-0.6790500283241272
1784194473541427500,7.322427490234375,4.128000259399414,9.067950248718262,-0.032999999821186066
1784194473551511600,7.332511474609375,4.1419501304626465,9.054000854492188,-0.7489500641822815
1784194473561595600,7.342595703125,4.116000175476074,9.049050331115723,-0.2530499994754791
1784194473571679700,7.3526796875,4.177950382232666,9.015000343322754,-0.51705002784729
1784194473581763600,7.362763671875,4.212000370025635,9.098999977111816,-0.51705002784729
1784194473591847700,7.37284765625,4.111050128936768,9.034049987792969,-0.20100000500679016
1784194473601931800,7.382931884765625,4.2430500984191895,9.082050323486328,-0.8400000333786011
1784194473612015900,7.393015869140625,4.138050079345703,9.006000518798828,-0.10200000554323196
1784194473622100000,7.403099853515625,4.183050155639648,9.049050331115723,-0.7990500330924988
1784194473632184000,7.41318408203125,4.1449503898620605,9.043950080871582,-0.33900001645088196
1784194473642268000,7.423267822265625,4.135050296783447,8.982000350952148,-0.5410500168800354
1784194473652352000,7.43335205078125,4.164000034332275,9.055950164794922,-0.5260500311851501
1784194473662436000,7.44343603515625,4.135050296783447,8.994000434875488,-0.39900001883506775
1784194473672520200,7.453520263671875,4.240950107574463,9.015000343322754,-0.6360000371932983
1784194473682604300,7.463604248046875,3.9270002841949463,8.979000091552734,-0.2749500274658203
1784194473692688400,7.4736884765625,4.116000175476074,9.010950088500977,-0.5290500521659851
1784194473702772500,7.4837724609375,4.225950241088867,9.027000427246094,-0.4069500267505646
1784194473712856600,7.493856689453125,4.171050071716309,8.958000183105469,-0.3540000021457672
1784194473722940700,7.503940673828125,4.080000400543213,9.042000770568848,-0.44505003094673157
1784194473733024500,7.5140244140625,4.011000156402588,8.962950706481934,-0.2530499994754791
1784194473743108600,7.524108642578125,4.2430500984191895,9.019950866699219,-0.32505002617836
1784194473753192700,7.534192626953125,4.0920000076293945,8.9839506149292,-0.2370000183582306
1784194473763276800,7.54427685546875,4.165950298309326,9.010950088500977,-0.31095001101493835
1784194473773361000,7.55436083984375,4.171050071716309,9.013050079345703,-0.09495000541210175
1784194473783445000,7.564445068359375,4.042050361633301,8.974950790405273,-0.2530499994754791
1784194473793529000,7.574529052734375,4.165950298309326,8.994000434875488,-0.21000000834465027
1784194473803613000,7.584613037109375,4.102050304412842,8.979000091552734,-0.09000000357627869
1784194473813697000,7.594697021484375,4.183050155639648,8.94795036315918,-0.0019500000635161996
1784194473823781000,7.604781005859375,4.1419501304626465,9.030000686645508,-0.3469500243663788
1784194473833865200,7.614865234375,4.02495002746582,8.98905086517334,0.18405000865459442
1784194473843949300,7.62494921875,4.225950241088867,8.97195053100586,-0.19305001199245453
1784194473854033400,7.635033447265625,4.120950222015381,8.881050109863281,0.1189500093460083
1784194473864117500,7.645117431640625,4.2019500732421875,9.006000518798828,-0.1099500060081482
1784194473874201600,7.65520166015625,3.9840002059936523,8.96505069732666,-0.07095000147819519
1784194473884285700,7.66528564453125,4.305000305175781,8.890950202941895,0.29205000400543213
1784194473894369500,7.67536962890625,4.3720502853393555,8.974950790405273,-0.2939999997615814
1784194473904453600,7.68545361328125,4.078050136566162,8.932050704956055,0.37995001673698425
1784194473914537700,7.695537841796875,4.066050052642822,8.94105052947998,-0.18105000257492065
1784194473924621800,7.705621826171875,4.332000255584717,8.946000099182129,0.21705001592636108
1784194473934706000,7.715705810546875,4.24500036239624,8.934000015258789,-0.034950003027915955
1784194473944789800,7.725789794921875,4.256999969482422,9.087000846862793,-0.05895000323653221
1784194473954873900,7.735873779296875,4.336050033569336,8.967000007629395,0.34200000762939453
1784194473964958000,7.7459580078125,4.296000003814697,8.938950538635254,-0.2530499994754791
1784194473975042000,7.7560419921875,4.213950157165527,8.93595027923584,0.39000001549720764
1784194473985126100,7.766126220703125,4.3720502853393555,9.007950782775879,0.037950001657009125
1784194473995210200,7.776210205078125,4.525050163269043,8.9839506149292,0.0880500078201294
1784194474005294300,7.78629443359375,4.321950435638428,8.950950622558594,0.16005000472068787
1784194474015378400,7.79637841796875,4.2330002784729,8.896050453186035,0.04500000178813934
1784194474025462500,7.806462646484375,4.444050312042236,8.9170503616333,0.28005000948905945
1784194474035546400,7.81654638671875,4.540050029754639,8.974950790405273,0.09000000357627869
1784194474045630500,7.82663037109375,4.498950004577637,8.926950454711914,0.031050002202391624
1784194474055714600,7.836714599609375,4.3030500411987305,8.862000465393066,0.21000000834465027
1784194474065798700,7.846798583984375,4.470000267028809,8.872050285339355,0.08595000207424164
1784194474075882800,7.8568828125,4.446000099182129,8.908050537109375,0.16200000047683716
1784194474085966800,7.866966796875,4.4320502281188965,8.860050201416016,0.1980000138282776
1784194474096051000,7.877051025390625,4.414950370788574,8.806950569152832,0.10695000737905502
1784194474106135000,7.887135009765625,4.378950119018555,8.805000305175781,0.31995001435279846
1784194474116219100,7.89721923828125,4.437000274658203,8.830950736999512,0.0019500000635161996
1784194474126303000,7.907302978515625,4.42995023727417,8.773050308227539,0.2580000162124634
1784194474136387000,7.917386962890625,4.465950012207031,8.656050682067871,0.05505000427365303
1784194474146471200,7.92747119140625,4.284000396728516,8.6850004196167,0.1579500138759613
1784194474156555300,7.93755517578125,4.402950286865234,8.66100025177002,0.1860000044107437
1784194474166639400,7.947639404296875,4.549050331115723,8.689949989318848,0.08595000207424164
1784194474176723500,7.957723388671875,4.321950435638428,8.601000785827637,0.35100001096725464
1784194474186807600,7.9678076171875,4.5610504150390625,8.599050521850586,-0.05895000323653221
1784194474196891600,7.9778916015625,4.396049976348877,8.605950355529785,0.16200000047683716
1784194474206975500,7.9879755859375,4.509000301361084,8.572050094604492,0.18405000865459442
1784194474217059600,7.9980595703125,4.603950023651123,8.63700008392334,-0.11205000430345535
1784194474227143700,8.008143798828126,4.573050022125244,8.629950523376465,0.24795001745224
1784194474237227800,8.018227783203125,4.674000263214111,8.614950180053711,-0.14295001327991486
1784194474247312000,8.028311767578124,4.6020002365112305,8.632050514221191,0
1784194474257396000,8.03839599609375,4.674000263214111,8.629950523376465,0.1189500093460083
1784194474267480000,8.04847998046875,4.762050151824951,8.659049987792969,-0.08595000207424164
1784194474277564000,8.05856396484375,4.897050380706787,8.63700008392334,0.23205001652240753
1784194474287648000,8.06864794921875,4.645050048828125,8.62695026397705,-0.39000001549720764
1784194474297732000,8.078732177734375,4.747950077056885,8.587050437927246,0.12600000202655792
1784194474307816200,8.088816162109374,4.930050373077393,8.601000785827637,0.04500000178813934
1784194474317900300,8.098900390625,4.825050354003906,8.613000869750977,-0.33705002069473267
1784194474327984400,8.108984375,4.867950439453125,8.614950180053711,0.14595000445842743
1784194474338068500,8.119068359375,4.873050212860107,8.587050437927246,-0.20100000500679016
1784194474348152600,8.129152587890625,4.834050178527832,8.596050262451172,-0.013950000517070293
1784194474358236700,8.139236572265625,4.867950439453125,8.593950271606445,-0.11205000430345535
1784194474368320800,8.14932080078125,4.9519500732421875,8.593950271606445,-0.09000000357627869
1784194474378404600,8.159404541015626,4.897050380706787,8.536050796508789,-0.0499500036239624
1784194474388488700,8.16948876953125,4.930050373077393,8.596050262451172,-0.3040500283241272
1784194474398572800,8.17957275390625,4.959000110626221,8.500950813293457,-0.06705000251531601
1784194474408657000,8.189656982421875,5.004000186920166,8.592000007629395,-0.18105000257492065
1784194474418741000,8.199740966796876,4.897050380706787,8.620050430297852,-0.28905001282691956
1784194474428825000,8.2098251953125,5.167050361633301,8.569950103759766,-0.08595000207424164
1784194474438909200,8.2199091796875,4.879950046539307,8.587050437927246,-0.3439500033855438
1784194474448993000,8.229992919921875,5.043000221252441,8.527050018310547,-0.1960500031709671
1784194474459077400,8.240077392578126,5.112000465393066,8.605950355529785,-0.34905001521110535
1784194474469161200,8.2501611328125,4.972950458526611,8.553000450134277,-0.28200000524520874
1784194474479245300,8.260245361328124,5.128950119018555,8.553000450134277,-0.25095000863075256
1784194474489329400,8.270329345703125,4.99500036239624,8.563050270080566,-0.42600002884864807
1784194474499413500,8.28041357421875,4.858050346374512,8.515049934387207,-0.14100000262260437
1784194474509497600,8.29049755859375,4.972950458526611,8.536050796508789,-0.42600002884864807
1784194474519581700,8.300581787109374,4.864950180053711,8.377950668334961,-0.2050500065088272
1784194474529665800,8.310665771484375,4.990050315856934,8.461950302124023,-0.1860000044107437
1784194474539750000,8.32075,5.0400004386901855,8.422050476074219,-0.2530499994754791
1784194474549833700,8.330833740234375,4.735949993133545,8.383049964904785,-0.12405000627040863
1784194474559918000,8.34091796875,4.818000316619873,8.40000057220459,-0.35100001096725464
1784194474570002000,8.351001953125,5.1220502853393555,8.343000411987305,-0.016050001606345177
1784194474580086000,8.3610859375,5.184000015258789,8.407050132751465,-0.20100000500679016
1784194474590170000,8.371170166015625,4.843950271606445,8.395050048828125,-0.18900001049041748
1784194474600254200,8.381254150390625,4.999950408935547,8.3899507522583,0.046950001269578934
1784194474610338300,8.39133837890625,4.968000411987305,8.440950393676758,-0.33900001645088196
1784194474620422400,8.40142236328125,5.203050136566162,8.469000816345215,0.1189500093460083
1784194474630506500,8.411506591796876,5.028000354766846,8.407050132751465,-0.2989500164985657
1784194474640590600,8.421590576171875,4.852950096130371,8.3860502243042,-0.11700000613927841
1784194474650674700,8.4316748046875,5.128950119018555,8.422050476074219,-0.1290000081062317
1784194474660758500,8.441758544921875,5.079000473022461,8.42400074005127,-0.10200000554323196
1784194474670842600,8.451842529296876,4.9110002517700195,8.380949974060059,-0.06195000186562538
1784194474680926700,8.4619267578125,4.935000419616699,8.425950050354004,-0.2989500164985657
1784194474691010800,8.4720107421875,5.233950138092041,8.419050216674805,0.0499500036239624
1784194474701095000,8.482094970703125,5.055000305175781,8.407050132751465,-0.31800001859664917
1784194474711179000,8.492178955078124,4.870050430297852,8.383049964904785,-0.0880500078201294
1784194474721263000,8.50226318359375,5.119050025939941,8.383049964904785,-0.16005000472068787
1784194474731347200,8.51234716796875,5.136000156402588,8.395050048828125,-0.2370000183582306
1784194474741431300,8.522431396484375,5.043000221252441,8.445000648498535,0.0070500001311302185
1784194474751515400,8.532515380859374,5.074050426483154,8.452950477600098,-0.3349500298500061
1784194474761599500,8.542599609375,5.079000473022461,8.425950050354004,-0.1789500117301941
1784194474771683600,8.55268359375,5.043000221252441,8.377950668334961,-0.14805001020431519
1784194474781767700,8.562767578125,5.134050369262695,8.428950309753418,-0.27000001072883606
1784194474791851500,8.5728515625,5.119050025939941,8.377950668334961,-0.226950004696846
1784194474801935600,8.582935546875,5.176950454711914,8.392950057983398,-0.3660000264644623
1784194474812019700,8.593019775390625,5.227050304412842,8.428950309753418,-0.1860000044107437
1784194474822103800,8.603103759765625,5.032950401306152,8.515049934387207,-0.24105000495910645
1784194474832188000,8.61318798828125,4.999950408935547,8.443050384521484,-0.3469500243663788
1784194474842272000,8.62327197265625,5.0620503425598145,8.326050758361816,-0.3060000240802765
1784194474852356000,8.633356201171875,5.232000350952148,8.40195083618164,-0.18105000257492065
1784194474862440200,8.643440185546876,5.385000228881836,8.472000122070312,-0.28005000948905945
1784194474872524300,8.653524169921875,4.8919501304626465,8.557950019836426,-0.5119500160217285
1784194474882608400,8.6636083984375,4.978050231933594,8.410050392150879,0.004050000105053186
1784194474892692200,8.673692138671875,5.221950054168701,8.326050758361816,-0.4930500090122223
1784194474902776300,8.6837763671875,5.316000461578369,8.503050804138184,-0.33000001311302185
1784194474912860400,8.6938603515625,5.212950229644775,8.62695026397705,-0.3540000021457672
1784194474922944500,8.703944580078126,5.124000072479248,8.52405071258545,-0.0070500001311302185
1784194474933028600,8.714028564453125,4.99500036239624,8.41200065612793,-0.6240000128746033
1784194474943112700,8.72411279296875,5.284050464630127,8.479050636291504,-0.037950001657009125
1784194474953196800,8.73419677734375,5.221950054168701,8.480999946594238,-0.46905001997947693
1784194474963281000,8.744281005859374,5.014050006866455,8.575050354003906,-0.13395000994205475
1784194474973365000,8.754364990234375,5.0400004386901855,8.368950843811035,-0.19095000624656677
1784194474983449000,8.764448974609374,5.074050426483154,8.36205005645752,-0.35895001888275146
1784194474993533200,8.774533203125,5.016000270843506,8.447999954223633,-0.05700000375509262
1784194475003617000,8.784616943359374,5.257950305938721,8.548050880432129,-0.612000048160553
1784194475013701000,8.794701171875,5.032950401306152,8.284950256347656,0.33900001645088196
1784194475023785200,8.80478515625,4.735949993133545,8.356950759887695,-0.6150000095367432
1784194475033869300,8.814869384765625,5.116950035095215,8.460000038146973,-0.17400000989437103
1784194475043953400,8.824953369140625,5.124000072479248,8.380949974060059,-0.05895000323653221
1784194475054037500,8.83503759765625,5.043000221252441,8.347050666809082,-0.3060000240802765
1784194475064121600,8.84512158203125,4.753050327301025,8.311050415039062,0.2939999997615814
1784194475074205700,8.855205810546876,5.193000316619873,8.40195083618164,-0.8250000476837158
1784194475084289800,8.865289794921875,5.134050369262695,8.395050048828125,0.6670500040054321
1784194475094374000,8.875373779296876,4.815000057220459,8.43600082397461,-0.8160000443458557
1784194475104457700,8.885457763671875,5.244000434875488,8.428950309753418,0.21705001592636108
1784194475114541800,8.895541748046876,5.184000015258789,8.37600040435791,-0.26295000314712524
1784194475124626000,8.9056259765625,4.968000411987305,8.473950386047363,-0.025950001552700996
1784194475134710000,8.9157099609375,5.011050224304199,8.413949966430664,0.22905001044273376
1784194475144794000,8.925794189453125,5.16195011138916,8.42400074005127,-0.6030000448226929
1784194475154878200,8.935878173828126,5.098050117492676,8.304000854492188,0.37800002098083496
1784194475164962300,8.94596240234375,5.028000354766846,8.404950141906738,-0.47805002331733704
1784194475175046100,8.956046142578124,5.208000183105469,8.380949974060059,0.361050009727478
1784194475185130200,8.966130126953125,4.89900016784668,8.36400032043457,-0.2749500274658203
1784194475195214300,8.97621435546875,4.9110002517700195,8.282999992370605,-0.028050001710653305
1784194475205298400,8.98629833984375,5.184000015258789,8.295000076293945,0.037950001657009125
1784194475215382500,8.996382568359374,5.224950313568115,8.371050834655762,-0.22500000894069672
1784194475225466600,9.006466552734375,4.819950103759766,8.392950057983398,0.2050500065088272
1784194475235550700,9.01655078125,4.9009504318237305,8.3899507522583,-0.2370000183582306
1784194475245634800,9.026634765625,5.119050025939941,8.224950790405273,0.1960500031709671
1784194475255719000,9.036718994140625,4.867950439453125,8.230050086975098,-0.15000000596046448
1784194475265803000,9.046802978515625,5.076000213623047,8.404950141906738,-0.04305000230669975
1784194475275886800,9.056886962890625,5.28000020980835,8.344950675964355,-0.09300000220537186
1784194475285971000,9.066970947265625,5.08305025100708,8.347050666809082,-0.016050001606345177
1784194475296055300,9.07705517578125,4.923000335693359,8.36205005645752,0.0690000057220459
1784194475306139400,9.087139404296876,5.181000232696533,8.331000328063965,-0.1770000010728836
1784194475316223500,9.097223388671875,5.167050361633301,8.3899507522583,-0.18105000257492065
1784194475326307600,9.1073076171875,4.990050315856934,8.464950561523438,-0.07095000147819519
1784194475336391700,9.1173916015625,5.25600004196167,8.445000648498535,-0.1360500007867813
1784194475346475500,9.1274755859375,5.136000156402588,8.287050247192383,-0.07395000010728836
1784194475356559600,9.1375595703125,4.774050235748291,8.271000862121582,-0.24105000495910645
1784194475366643700,9.147643798828126,5.019000053405762,8.395050048828125,-0.20295001566410065
1784194475376727800,9.157727783203125,5.514000415802002,8.449950218200684,-0.16500000655651093
1784194475386812000,9.16781201171875,4.753050327301025,8.38800048828125,-0.09495000541210175
1784194475396896000,9.17789599609375,4.7910003662109375,8.296950340270996,-0.27000001072883606
1784194475406980000,9.18797998046875,5.395050048828125,8.259000778198242,-0.3850500285625458
1784194475417064200,9.198064208984375,4.915950298309326,8.35004997253418,-0.06705000251531601
1784194475427148300,9.208148193359374,4.597050189971924,8.410050392150879,-0.2989500164985657
1784194475437232400,9.218232421875,5.341950416564941,8.311050415039062,-0.34905001521110535
1784194475447316500,9.22831640625,5.263050079345703,8.218050003051758,-0.24795001745224
1784194475457400600,9.238400634765625,4.714950084686279,8.392950057983398,-0.28200000524520874
1784194475467484700,9.248484619140624,5.043000221252441,8.40000057220459,-0.27000001072883606
1784194475477568500,9.258568603515625,5.305950164794922,8.380949974060059,-0.5070000290870667
1784194475487652600,9.268652587890625,4.89900016784668,8.37405014038086,-0.04005000367760658
1784194475497736700,9.27873681640625,5.494950294494629,8.074049949645996,0.8230500221252441
1784194475507820800,9.28882080078125,4.861050128936768,9.444000244140625,1.29705011844635
1784194475517902000,9.298902099609375,5.028000354766846,7.36305046081543,-4.683000087738037
1784194475527989000,9.308989013671875,4.353000164031982,9.585000038146973,-2.6760001182556152
1784194475538073000,9.319072998046876,5.908950328826904,8.188950538635254,3.4110002517700195
1784194475548157200,9.3291572265625,6.051000118255615,8.116950035095215,2.476950168609619
1784194475558241300,9.3392412109375,4.698000431060791,8.67495059967041,-2.599950075149536
1784194475568325400,9.349325439453125,4.401000022888184,8.647050857543945,-1.6249500513076782
1784194475578409500,9.359409423828126,5.719950199127197,8.422050476074219,0.598050057888031
1784194475588493600,9.36949365234375,5.767950057983398,8.722949981689453,1.443000078201294
1784194475598577700,9.37957763671875,4.923000335693359,8.3860502243042,-1.1560500860214233
1784194475608661800,9.389661865234375,4.558950424194336,8.437950134277344,-1.3350000381469727
1784194475618745900,9.399745849609374,5.397000312805176,8.37405014038086,0.4069500267505646
1784194475628830000,9.409829833984375,5.722950458526611,8.65095043182373,0.21000000834465027
1784194475638914000,9.4199140625,5.011050224304199,8.425950050354004,-0.08295000344514847
1784194475648998100,9.429998046875,4.7029500007629395,8.42400074005127,-0.5959500074386597
1784194475659082000,9.44008203125,5.398950099945068,8.431050300598145,-0.022950001060962677
1784194475669166000,9.450166015625,5.638950347900391,8.545949935913086,0.09795000404119492
1784194475679250200,9.460250244140624,5.00700044631958,8.503050804138184,-0.06405000388622284
1784194475689334300,9.470334228515625,4.873050212860107,8.42400074005127,-0.11700000613927841
1784194475699418400,9.48041845703125,5.569050312042236,8.3860502243042,0.016050001606345177
1784194475709502200,9.490502197265625,5.293950080871582,8.383049964904785,-0.3829500079154968
1784194475719586600,9.500586669921875,5.128950119018555,8.536050796508789,-0.4620000123977661
1784194475729670400,9.51067041015625,5.469000339508057,8.541000366210938,0.08100000023841858
1784194475739754500,9.52075439453125,5.449950218200684,8.461950302124023,0.2560500204563141
1784194475749838600,9.530838623046876,4.927950382232666,8.35200023651123,0.046950001269578934
1784194475759922700,9.540922607421875,5.047050476074219,8.335050582885742,-0.598050057888031
1784194475770006800,9.5510068359375,5.466000080108643,8.40000057220459,-0.26295000314712524
1784194475780091000,9.5610908203125,5.172000408172607,8.422050476074219,0.12195000797510147
1784194475790175000,9.571175048828126,4.920000076293945,8.260950088500977,0.39900001883506775
1784194475800259000,9.581259033203125,5.158050060272217,8.116950035095215,-0.10200000554323196
1784194475810343200,9.59134326171875,4.729050159454346,8.200950622558594,-0.35100001096725464
1784194475820427300,9.60142724609375,5.124000072479248,8.275050163269043,0.3060000240802765
1784194475830511400,9.611511474609374,5.289000034332275,8.194050788879395,-0.04005000367760658
1784194475840595200,9.62159521484375,4.944000244140625,8.227950096130371,-0.5959500074386597
1784194475850679300,9.63167919921875,4.753050327301025,8.094000816345215,0.5719500184059143
1784194475860763400,9.641763427734375,5.18595027923584,8.196000099182129,0.0880500078201294
1784194475870847500,9.651847412109374,5.155050277709961,8.268000602722168,0.35100001096725464
1784194475880931600,9.661931640625,5.055000305175781,8.266050338745117,-0.24795001745224
1784194475891015700,9.672015625,5.244000434875488,8.220000267028809,-0.12600000202655792
1784194475901099800,9.682099853515625,4.807950019836426,8.212950706481934,0.4740000367164612
1784194475911184000,9.692183837890624,4.885050296783447,8.280000686645508,-0.5020500421524048
1784194475921268000,9.70226806640625,5.413950443267822,8.295000076293945,0.0019500000635161996
1784194475931352000,9.71235205078125,4.996950149536133,8.244000434875488,0.04005000367760658
1784194475941436000,9.722435791015625,5.191050052642822,8.287050247192383,-0.18105000257492065
1784194475951520300,9.732520263671875,5.125950336456299,8.380949974060059,0.49695003032684326
1784194475961604000,9.74260400390625,5.308050155639648,8.377950668334961,-0.22200001776218414
1784194475971688200,9.752688232421875,5.038050174713135,8.37600040435791,-0.031050002202391624
1784194475981772300,9.762772216796876,4.9009504318237305,8.314050674438477,-0.5719500184059143
1784194475991856400,9.7728564453125,5.136000156402588,8.280000686645508,-0.4759500324726105
1784194476001940500,9.7829404296875,5.050050258636475,8.37405014038086,0.4330500066280365
1784194476012024600,9.793024658203125,5.422950267791748,8.25195026397705,-0.021000001579523087
1784194476022108700,9.803108642578126,4.992000102996826,8.355000495910645,-0.6720000505447388
1784194476032192800,9.81319287109375,4.705049991607666,8.239950180053711,-0.2560500204563141
1784194476042276900,9.82327685546875,5.263050079345703,8.314050674438477,-0.19095000624656677
1784194476052361000,9.83336083984375,5.434950351715088,8.268000602722168,-0.028050001710653305
1784194476062445000,9.843445068359374,5.008950233459473,8.335050582885742,-0.5290500521659851
1784194476072529200,9.853529052734375,5.205000400543213,8.304000854492188,-0.16200000047683716
1784194476082613000,9.863613037109374,5.074050426483154,8.203949928283691,-0.037950001657009125
1784194476092697000,9.873697021484375,5.257950305938721,8.323050498962402,-0.23895001411437988
1784194476102781200,9.88378125,5.016000270843506,8.455050468444824,-0.33000001311302185
1784194476112865300,9.893865234375,5.3110504150390625,8.254050254821777,-0.43995001912117004
1784194476122949400,9.903949462890624,5.158050060272217,8.278050422668457,-0.031050002202391624
1784194476133033500,9.914033447265625,5.047050476074219,8.272950172424316,-0.08595000207424164
1784194476143117600,9.92411767578125,4.837050437927246,8.40195083618164,-0.24795001745224
1784194476153201700,9.93420166015625,5.008950233459473,8.0910005569458,-0.06705000251531601
1784194476163285800,9.94428564453125,5.2009501457214355,8.070000648498535,-0.14805001020431519
1784194476173369900,9.954369873046875,5.14995002746582,8.218050003051758,-0.2370000183582306
1784194476183454000,9.964453857421875,5.0590500831604,8.617950439453125,-0.4350000321865082
1784194476193537800,9.974537841796876,5.287050247192383,8.242050170898438,0.32505002617836
1784194476203622000,9.984621826171875,5.098050117492676,8.158050537109375,0.05895000323653221
1784194476213706000,9.9947060546875,5.328000068664551,8.248950004577637,-0.07395000010728836
1784194476223790000,10.0047900390625,5.299050331115723,8.565000534057617,-0.4230000078678131
1784194476233874200,10.014874267578126,5.3710503578186035,8.368950843811035,0.39705002307891846
1784194476243958300,10.024958251953125,5.328000068664551,8.284950256347656,0.41805002093315125
1784194476254042400,10.03504248046875,5.10705041885376,8.275050163269043,-0.6990000605583191
1784194476264126500,10.04512646484375,5.131050109863281,8.480999946594238,-1.9320000410079956
1784194476274210600,10.05521044921875,5.46405029296875,8.580000877380371,-0.6840000152587891
1784194476284294700,10.065294677734375,5.638950347900391,8.368950843811035,1.8139500617980957
1784194476294378500,10.07537841796875,5.332050323486328,8.338050842285156,0.7680000066757202
1784194476304462600,10.085462646484375,4.975950241088867,8.38800048828125,-1.0909500122070312
1784194476314546700,10.095546630859374,5.437950134277344,8.377950668334961,-1.4410500526428223
1784194476324630800,10.105630859375,5.332050323486328,8.443050384521484,0.9280500411987305
1784194476334715000,10.11571484375,5.088000297546387,8.236949920654297,0.7180500626564026
1784194476344799000,10.125799072265625,5.799000263214111,8.200950622558594,-0.3750000298023224
1784194476354883000,10.135883056640624,5.10705041885376,8.383049964904785,-0.7440000176429749
1784194476364967200,10.14596728515625,4.939950466156006,8.404950141906738,-0.11205000430345535
1784194476375051300,10.15605126953125,5.9569501876831055,8.36400032043457,0.7939500212669373
1784194476385135400,10.16613525390625,5.562000274658203,8.410050392150879,-0.3750000298023224
1784194476395219500,10.176219482421875,4.954050064086914,8.521950721740723,-0.39900001883506775
1784194476405303600,10.186303466796875,5.482950210571289,8.41200065612793,-0.20100000500679016
1784194476415387600,10.1963876953125,5.502000331878662,8.295000076293945,0.26805001497268677
1784194476425471700,10.2064716796875,5.3680500984191895,8.42400074005127,-0.021000001579523087
1784194476435555800,10.216555908203125,4.939950466156006,8.480999946594238,-0.2460000067949295
1784194476445640000,10.226639892578126,5.6509504318237305,8.428950309753418,-0.019050000235438347
1784194476455724000,10.23672412109375,5.602950096130371,8.26395034790039,0.034950003027915955
1784194476465808100,10.24680810546875,4.990050315856934,8.380949974060059,0.26295000314712524
1784194476475892200,10.256892333984375,5.48805046081543,8.440950393676758,-0.2770500183105469
1784194476485976000,10.26697607421875,5.478000164031982,8.38800048828125,-0.09000000357627869
1784194476496060200,10.27706005859375,5.19795036315918,8.259000778198242,0.42600002884864807
1784194476506144300,10.287144287109374,5.257950305938721,8.36400032043457,-0.226950004696846
1784194476516228400,10.297228271484375,5.526000499725342,8.365950584411621,0.20100000500679016
1784194476526312400,10.3073125,5.158050060272217,8.164950370788574,-0.32505002617836
1784194476536396500,10.317396484375,5.184000015258789,8.282999992370605,0.2770500183105469
1784194476546480600,10.327480712890624,5.454000473022461,8.280000686645508,0.08295000344514847
1784194476556564700,10.337564697265625,5.124000072479248,8.380949974060059,-0.23400001227855682
1784194476566648800,10.34764892578125,5.437950134277344,8.215950012207031,0.07095000147819519
1784194476576733000,10.35773291015625,5.446950435638428,8.290050506591797,-0.26805001497268677
1784194476586817000,10.367817138671874,5.181000232696533,8.419050216674805,0.2770500183105469
1784194476596901000,10.377901123046875,5.337000370025635,8.315999984741211,-0.1960500031709671
1784194476606985200,10.387985107421875,5.089950084686279,8.152950286865234,-0.21495001018047333
1784194476617069300,10.3980693359375,5.277000427246094,8.134050369262695,0.07605000585317612
1784194476627153200,10.408153076171875,5.263050079345703,8.256000518798828,-0.05505000427365303
1784194476637237200,10.4182373046875,5.035050392150879,8.200950622558594,0.013950000517070293
1784194476647321300,10.4283212890625,4.9519500732421875,7.987950325012207,-0.3439500033855438
1784194476657405400,10.438405517578126,5.164950370788574,7.939950466156006,0.0690000057220459
1784194476667489500,10.448489501953125,5.181000232696533,8.05305004119873,-0.32505002617836
1784194476677573600,10.45857373046875,5.09505033493042,8.191950798034668,-0.009000000543892384
1784194476687657700,10.46865771484375,5.128950119018555,8.11305046081543,-0.286950021982193
1784194476697741800,10.478741943359376,5.004000186920166,8.13705062866211,-0.1860000044107437
1784194476707826000,10.488825927734375,5.517000198364258,8.208000183105469,-0.25095000863075256
1784194476717910000,10.498909912109376,5.493000030517578,8.344950675964355,-0.22500000894069672
1784194476727994000,10.508994140625,4.759950160980225,8.335050582885742,-0.04005000367760658
1784194476738078200,10.519078125,5.14995002746582,8.059950828552246,-0.5020500421524048
1784194476748162300,10.529162353515625,5.5909504890441895,8.070000648498535,-0.11205000430345535
1784194476758246400,10.539246337890624,4.966050148010254,8.280000686645508,-0.41805002093315125
1784194476768330200,10.549330322265625,5.304000377655029,8.319000244140625,-0.17400000989437103
1784194476778414300,10.559414306640624,5.347050189971924,8.223000526428223,-0.07095000147819519
1784194476788498400,10.56949853515625,4.711950302124023,8.196000099182129,-0.3079500198364258
1784194476798582500,10.57958251953125,5.461950302124023,8.36205005645752,-0.08100000023841858
1784194476808666600,10.58966650390625,5.5570502281188965,8.43600082397461,-0.31095001101493835
1784194476818750700,10.599750732421874,4.8919501304626465,8.380949974060059,-0.33000001311302185
1784194476828834800,10.609834716796875,5.196000099182129,8.356950759887695,-0.0880500078201294
1784194476838919000,10.6199189453125,5.545050144195557,8.220000267028809,-0.3559500277042389
1784194476849003000,10.6300029296875,5.208000183105469,8.365950584411621,-0.09300000220537186
1784194476859087000,10.640087158203125,5.134050369262695,8.497950553894043,-0.286950021982193
1784194476869171200,10.650171142578126,5.449950218200684,8.395050048828125,-0.32295000553131104
1784194476879255300,10.66025537109375,5.385000228881836,8.227950096130371,-0.16200000047683716
1784194476889339400,10.67033935546875,4.9830002784729,8.365950584411621,-0.23895001411437988
1784194476899423500,10.680423583984375,5.317950248718262,8.467050552368164,-0.08295000344514847
1784194476909507600,10.690507568359376,5.5570502281188965,8.371050834655762,-0.06705000251531601
1784194476919591700,10.700591796875,5.052000045776367,8.236949920654297,-0.21705001592636108
1784194476929675500,10.710675537109376,4.954050064086914,8.296950340270996,0.009000000543892384
1784194476939759900,10.720759765625,5.698950290679932,8.416950225830078,-0.26295000314712524
1784194476949843700,10.73084375,5.284050464630127,8.37405014038086,-0.05700000375509262
1784194476959927800,10.740927734375,5.196000099182129,8.467050552368164,0.0019500000635161996
1784194476970012000,10.751011962890624,5.526000499725342,8.488950729370117,-0.37800002098083496
1784194476980096000,10.761095947265625,5.205000400543213,8.37600040435791,0.24105000495910645
1784194476990180000,10.77118017578125,5.407050132751465,8.43600082397461,-0.4740000367164612
1784194477000264200,10.78126416015625,5.245950222015381,8.260950088500977,0.35895001888275146
1784194477010348300,10.791348388671874,5.715000152587891,8.320950508117676,-0.3679500222206116
1784194477020432400,10.801432373046875,4.927950382232666,8.232000350952148,0.11205000430345535
1784194477030516500,10.8115166015625,5.128950119018555,8.268000602722168,-0.14805001020431519
1784194477040600600,10.8216005859375,5.54295015335083,8.199000358581543,-0.16905000805854797
1784194477050684700,10.8316845703125,5.4810004234313965,8.230050086975098,0.1579500138759613
1784194477060768800,10.841768798828125,5.112000465393066,8.311050415039062,-0.3850500285625458
1784194477070852600,10.8518525390625,4.858050346374512,8.242050170898438,0.27000001072883606
1784194477080936700,10.861936767578126,5.569050312042236,7.987950325012207,-0.20295001566410065
1784194477091020800,10.872020751953125,5.458950042724609,8.224950790405273,-0.226950004696846
1784194477101105000,10.88210498046875,4.639950275421143,8.116950035095215,0.33900001645088196
1784194477111189000,10.89218896484375,5.9070000648498535,8.266050338745117,-0.6840000152587891
1784194477121273000,10.902273193359376,5.6170501708984375,7.947000503540039,0.24105000495910645
1784194477131357200,10.912357177734375,4.61400032043457,8.164950370788574,-0.4540500342845917
1784194477141441300,10.922441162109376,5.683950424194336,8.395050048828125,-0.08295000344514847
1784194477151525400,10.932525390625,6.02400016784668,8.116950035095215,-0.11400000751018524
1784194477161609500,10.942609375,4.875,8.07705020904541,-0.43800002336502075
1784194477171693600,10.952693603515625,5.380050182342529,8.175000190734863,0.23205001652240753
1784194477181777400,10.96277734375,5.83305025100708,8.40000057220459,-0.3660000264644623
1784194477191861500,10.972861572265625,5.184000015258789,8.200950622558594,0.1189500093460083
1784194477201945600,10.982945556640624,5.152950286865234,7.998000144958496,-0.11400000751018524
1784194477212029700,10.99302978515625,5.686950206756592,8.038050651550293,0.06195000186562538
1784194477222113800,11.00311376953125,5.437950134277344,8.131950378417969,-0.021000001579523087
1784194477232198000,11.013197998046875,5.172000408172607,8.10105037689209,0.21705001592636108
1784194477242282000,11.023281982421874,5.46405029296875,7.845000267028809,0.09300000220537186
1784194477252366000,11.033365966796875,5.778000354766846,8.035950660705566,0.2959500253200531
1784194477262450200,11.0434501953125,5.316000461578369,8.035950660705566,0.23400001227855682
1784194477272534300,11.0535341796875,5.373000144958496,8.11500072479248,0.33000001311302185
1784194477282618400,11.063618408203125,5.707950115203857,7.930950164794922,0.3349500298500061
1784194477292702500,11.073702392578125,5.14995002746582,7.882950305938721,0.28200000524520874
1784194477302786600,11.08378662109375,5.608050346374512,7.959000587463379,0.5119500160217285
1784194477312870700,11.09387060546875,5.620050430297852,7.864050388336182,0.14295001327991486
1784194477322954500,11.10395458984375,5.320050239562988,7.939950466156006,0.505050003528595
1784194477333038600,11.11403857421875,5.454000473022461,7.950000286102295,0.4159500300884247
1784194477343122700,11.124122802734375,5.794050216674805,7.858950138092041,0.5359500050544739
1784194477353206800,11.134206787109376,5.529000282287598,7.9360504150390625,0.3079500198364258
1784194477363291000,11.144290771484375,5.344050407409668,8.011950492858887,0.6580500602722168
1784194477373375000,11.154375,5.893050193786621,8.011950492858887,0.6030000448226929
1784194477383459000,11.164458984375,5.611950397491455,7.870950222015381,0.4519500136375427
1784194477393543200,11.174543212890624,5.497950077056885,7.879950523376465,0.505050003528595
1784194477403627300,11.184627197265625,5.646000385284424,7.9710001945495605,0.28395000100135803
1784194477413711400,11.19471142578125,5.791950225830078,8.043000221252441,0.612000048160553
1784194477423795500,11.20479541015625,5.301000118255615,7.951950550079346,0.35100001096725464
1784194477433879600,11.214879638671874,5.610000133514404,7.870950222015381,0.4020000100135803
1784194477443963600,11.224963623046875,6.048000335693359,7.950000286102295,0.46905001997947693
1784194477454047700,11.2350478515625,5.09505033493042,8.055000305175781,0.5290500521659851
1784194477464131800,11.2451318359375,6.0169501304626465,7.966950416564941,0.5650500059127808
1784194477474216000,11.2552158203125,5.860950469970703,7.903950214385986,0.2370000183582306
1784194477484300000,11.265300048828125,5.380050182342529,7.947000503540039,0.4300500154495239
1784194477494384000,11.275384033203125,5.73900032043457,8.05305004119873,0.35895001888275146
1784194477504468000,11.285468017578125,5.839950084686279,8.034000396728516,0.7249500155448914
1784194477514552000,11.295552001953125,5.493000030517578,7.938000202178955,0.2650500237941742
1784194477524636400,11.305636474609376,5.682000160217285,8.055000305175781,0.6559500098228455
1784194477534720500,11.315720458984375,5.940000057220459,8.08395004272461,0.3660000264644623
1784194477544804400,11.325804443359376,5.4280500411987305,8.094000816345215,0.3679500222206116
1784194477554888400,11.335888427734375,5.73900032043457,8.006999969482422,0.42600002884864807
1784194477564972500,11.34597265625,5.814000129699707,8.019000053405762,0.15300001204013824
1784194477575056600,11.356056640625,5.707950115203857,8.110050201416016,0.5410500168800354
1784194477585140700,11.366140625,5.815950393676758,8.031000137329102,0.226950004696846
1784194477595224800,11.376224853515625,5.553000450134277,7.993050575256348,0.47805002331733704
1784194477605309000,11.386308837890626,5.6670002937316895,8.023950576782227,0.28905001282691956
1784194477615393000,11.39639306640625,5.7900004386901855,8.070000648498535,0.1789500117301941
1784194477625477000,11.40647705078125,5.905050277709961,7.963950157165527,0.361050009727478
1784194477635561200,11.416561279296875,5.433000087738037,7.963950157165527,0.22500000894069672
1784194477645645300,11.426645263671874,5.466000080108643,7.998000144958496,0.32295000553131104
1784194477655729400,11.4367294921875,6.072000503540039,7.91895055770874,0.14295001327991486
1784194477665813500,11.4468134765625,5.565000057220459,7.959000587463379,0.39195001125335693
1784194477675897600,11.456897705078125,5.506950378417969,8.010000228881836,0.32295000553131104
1784194477685981700,11.466981689453124,5.962050437927246,8.082000732421875,-0.0499500036239624
1784194477696065800,11.477065673828125,5.524050235748291,7.959000587463379,0.34200000762939453
1784194477706150000,11.48714990234375,5.572050094604492,8.006999969482422,0.013950000517070293
1784194477716233700,11.497233642578125,5.9569501876831055,8.062050819396973,0.4830000102519989
1784194477726318000,11.507318115234375,5.998050212860107,7.954950332641602,-0.19095000624656677
1784194477736402000,11.51740185546875,5.392050266265869,8.06505012512207,0.3349500298500061
1784194477746486000,11.527486083984375,5.775000095367432,7.9860005378723145,0.09000000357627869
1784194477756570000,11.537570068359376,6.112950325012207,8.058000564575195,0.1189500093460083
1784194477766654200,11.547654296875,5.45205020904541,7.91895055770874,0.3160500228404999
1784194477776738300,11.55773828125,5.623950481414795,7.990950584411621,-0.06705000251531601
1784194477786822400,11.567822509765625,6.256050109863281,8.086050033569336,0.45000001788139343
1784194477796906500,11.577906494140626,5.689050197601318,8.143950462341309,0.14595000445842743
1784194477806990600,11.587990478515625,5.83305025100708,8.098050117492676,-0.09000000357627869
1784194477817074700,11.59807470703125,6.184950351715088,8.140950202941895,0.20805001258850098
1784194477827159000,11.608158935546875,5.964000225067139,8.284950256347656,-0.19305001199245453
1784194477837243000,11.618242919921874,6.075000286102295,8.292000770568848,-0.12600000202655792
1784194477847327000,11.628326904296875,5.991000175476074,8.271000862121582,0.4519500136375427
1784194477857411000,11.6384111328125,5.908950328826904,8.230050086975098,-0.3040500283241272
1784194477867495200,11.6484951171875,6.181950092315674,8.200950622558594,0.3160500228404999
1784194477877579300,11.658579345703124,5.48805046081543,8.119950294494629,-0.12405000627040863
1784194477887663400,11.668663330078125,5.383050441741943,7.993050575256348,0.16200000047683716
1784194477897747500,11.67874755859375,6.490950107574463,7.947000503540039,0.33000001311302185
1784194477907831600,11.68883154296875,5.215050220489502,8.026050567626953,-0.1360500007867813
1784194477917915600,11.69891552734375,4.642950057983398,7.797000408172607,0.1860000044107437
1784194477927999700,11.708999755859375,5.872950077056885,7.672050476074219,0.04005000367760658
1784194477938083800,11.719083740234375,5.086050033569336,7.3060503005981445,1.1059499979019165
1784194477948168000,11.72916796875,4.3120503425598145,7.378050327301025,0.009000000543892384
1784194477958251800,11.739251708984375,5.28000020980835,7.420950412750244,0.7969500422477722
1784194477968336100,11.749336181640626,5.416050434112549,7.270050525665283,0.6580500602722168
1784194477978420200,11.759420166015625,4.674000263214111,7.444950580596924,0.8350500464439392
1784194477988504300,11.76950439453125,4.729050159454346,7.330050468444824,0.8089500665664673
1784194477998588200,11.779588134765625,5.332050323486328,7.420950412750244,0.0499500036239624
1784194478008672300,11.78967236328125,5.052000045776367,7.438050270080566,1.3470001220703125
1784194478018756400,11.79975634765625,5.092950344085693,7.504950523376465,0.23205001652240753
1784194478028840400,11.80984033203125,5.596050262451172,7.473000526428223,0.9000000357627869
1784194478038924500,11.819924560546875,5.683950424194336,7.629000186920166,0.5530500411987305
1784194478049009000,11.8300087890625,5.116950035095215,7.663050174713135,0.7320000529289246
1784194478059093000,11.840093017578125,5.56695032119751,7.7749505043029785,0.7110000252723694
1784194478069177000,11.850177001953124,5.665050506591797,7.773000240325928,0.2050500065088272
1784194478079261000,11.860260986328125,5.659950256347656,7.750950336456299,0.7660500407218933
1784194478089345000,11.870344970703124,6.136950492858887,7.729950428009033,0.3630000054836273
1784194478099429400,11.880429443359375,5.506950378417969,7.7989501953125,0.25095000863075256
1784194478109513500,11.890513427734374,5.550000190734863,7.902000427246094,0.612000048160553
1784194478119597300,11.900597412109375,6.0769500732421875,7.963950157165527,-0.2440500110387802
1784194478129681400,11.910681396484375,5.73900032043457,7.912050247192383,0.5380499958992004
1784194478139765500,11.920765625,5.622000217437744,7.990950584411621,-0.06705000251531601
1784194478149849600,11.930849609375,5.94795036315918,8.019000053405762,-0.010950000956654549
1784194478159933700,11.94093359375,6.357000350952148,7.978950500488281,0.15000000596046448
1784194478170017800,11.951017822265625,5.701050281524658,8.167950630187988,-0.23895001411437988
1784194478180102000,11.961101806640626,5.682000160217285,8.287050247192383,0.16005000472068787
1784194478190185700,11.971185791015625,6.430950164794922,8.098050117492676,-0.2460000067949295
1784194478200269800,11.981269775390626,6.064950466156006,8.006999969482422,-0.21495001018047333
1784194478210354200,11.991354248046875,5.75100040435791,8.134050369262695,0.16500000655651093
1784194478220438300,12.001438232421876,6.276000499725342,8.173049926757812,-0.43800002336502075
1784194478230522000,12.011522216796875,6.561000347137451,8.005050659179688,-0.0019500000635161996
1784194478240606200,12.021606201171876,6.180000305175781,8.079000473022461,-0.4830000102519989
1784194478250690300,12.031690185546875,6.498000144958496,8.295000076293945,-0.10200000554323196
1784194478260774400,12.0417744140625,6.687000274658203,8.299050331115723,-0.1980000138282776
1784194478270858500,12.0518583984375,5.6670002937316895,8.307000160217285,-0.3349500298500061
1784194478280942600,12.061942626953124,6.052950382232666,8.320950508117676,0.004050000105053186
1784194478291026700,12.072026611328125,6.652050495147705,8.215950012207031,-0.39195001125335693
1784194478301110800,12.08211083984375,6.0960001945495605,8.14905071258545,0.23205001652240753
1784194478311194600,12.092194580078125,5.802000045776367,8.271000862121582,-0.4230000078678131
1784194478321278700,12.10227880859375,6.76200008392334,8.355000495910645,-0.05700000375509262
1784194478331363000,12.112363037109375,5.670000076293945,8.098050117492676,0.29205000400543213
1784194478341447000,12.122447021484374,5.715000152587891,7.879950523376465,-0.24105000495910645
1784194478351531000,12.132531005859375,6.429000377655029,7.845000267028809,0.41100001335144043
1784194478361615000,12.142614990234375,5.229000091552734,7.809000492095947,-0.1360500007867813
1784194478371699200,12.15269921875,6.091050148010254,7.603050231933594,0.7780500650405884
1784194478381783300,12.162783203125,6.217950344085693,7.2460503578186035,0.4069500267505646
1784194478391867400,12.172867431640626,5.430000305175781,7.279950141906738,0.48600003123283386
1784194478401951500,12.182951416015625,5.7460503578186035,7.6050004959106445,0.9070500135421753
1784194478412035600,12.19303564453125,6.216000080108643,7.641000270843506,0.43995001912117004
1784194478422119700,12.20311962890625,5.871000289916992,7.344000339508057,0.9070500135421753
1784194478432203800,12.213203857421876,5.272050380706787,7.203000545501709,0.6199500560760498
1784194478442287900,12.223287841796875,6.249000072479248,7.291050434112549,0.6630000472068787
1784194478452372000,12.2333720703125,5.950050354003906,7.6650004386901855,0.4230000078678131
1784194478462456000,12.2434560546875,5.401950359344482,7.612050533294678,0.9570000171661377
1784194478472540200,12.2535400390625,6.343050479888916,7.552050590515137,0.21705001592636108
1784194478482624300,12.263624267578125,5.842050075531006,7.573950290679932,0.7110000252723694
1784194478492708400,12.273708251953124,5.890050411224365,7.6050004959106445,0.26295000314712524
1784194478502792400,12.28379248046875,5.386950492858887,7.768050193786621,0.5410500168800354
1784194478512876500,12.29387646484375,5.848950386047363,7.69605016708374,0.5959500074386597
1784194478522960600,12.303960693359375,5.928000450134277,7.5450005531311035,-0.010950000956654549
1784194478533044700,12.314044677734374,5.500050067901611,7.509000301361084,0.7609500288963318
1784194478543128800,12.32412890625,5.992950439453125,7.7059502601623535,0.0019500000635161996
1784194478553213000,12.334212890625,5.413950443267822,7.786950588226318,0.05700000375509262
1784194478563297000,12.344297119140625,5.992950439453125,7.642950534820557,0.22005000710487366
1784194478573381000,12.354381103515625,5.701050281524658,7.624050140380859,-0.4210500121116638
1784194478583465200,12.36446533203125,5.731950283050537,7.677000522613525,0.22905001044273376
1784194478593549300,12.37454931640625,6.1080002784729,7.738950252532959,-0.2989500164985657
1784194478603633400,12.38463330078125,5.754000186920166,7.7059502601623535,0.18105000257492065
1784194478613717500,12.394717529296875,6.051000118255615,7.701000213623047,0.0499500036239624
1784194478623801600,12.404801513671876,6.000000476837158,7.897050380706787,-0.31095001101493835
1784194478633885700,12.4148857421875,6.040950298309326,7.797000408172607,0.32505002617836
1784194478643969500,12.424969482421876,5.610000133514404,7.857000350952148,-0.28395000100135803
1784194478654053600,12.4350537109375,6.385950088500977,7.813050270080566,0.034950003027915955
1784194478664138000,12.445137939453126,6.450000286102295,7.852050304412842,-0.1860000044107437
1784194478674222000,12.45522216796875,5.620050430297852,7.912050247192383,0.11400000751018524
1784194478684306000,12.465305908203124,6.181950092315674,7.885050296783447,-0.09000000357627869
1784194478694390000,12.47539013671875,6.3349504470825195,7.962000370025635,0.13095000386238098
1784194478704474000,12.48547412109375,5.983950138092041,7.882950305938721,-0.09000000357627869
1784194478714558200,12.49555810546875,6.058050155639648,7.99500036239624,0.24795001745224
1784194478724642300,12.505642333984374,6.718950271606445,7.915950298309326,0.10005000233650208
1784194478734726400,12.515726318359375,5.872950077056885,7.878000259399414,0.046950001269578934
1784194478744810500,12.525810546875,5.7900004386901855,7.914000511169434,0.22905001044273376
1784194478754894600,12.53589453125,6.561000347137451,7.878000259399414,-0.16500000655651093
1784194478764978400,12.545978515625,5.944950103759766,7.840050220489502,0.4330500066280365
1784194478775062800,12.556062744140625,6.175050258636475,7.782000541687012,-0.2959500253200531
1784194478785147000,12.56614697265625,6.112950325012207,7.8160505294799805,0.32295000553131104
1784194478795230700,12.576230712890625,6.240000247955322,7.717950344085693,0.025950001552700996
1784194478805314800,12.586314697265625,5.9599504470825195,7.617000579833984,0.3540000021457672
1784194478815399000,12.59639892578125,5.962050437927246,7.672050476074219,0.46605002880096436
1784194478825483000,12.60648291015625,6.562950134277344,7.768050193786621,0.034950003027915955
1784194478835567400,12.6165673828125,5.791950225830078,7.792050361633301,0.6940500140190125
1784194478845651500,12.6266513671875,6.163050174713135,7.6870503425598145,-0.010950000956654549
1784194478855735600,12.636735595703126,6.204000473022461,7.666950225830078,0.32505002617836
1784194478865819600,12.646819580078125,6.004950523376465,7.804050445556641,0.06405000388622284
1784194478875903700,12.65690380859375,5.91195011138916,7.786950588226318,0.18405000865459442
1784194478885987800,12.66698779296875,6.388050079345703,7.738950252532959,0.5410500168800354
1784194478896071700,12.67707177734375,6.3670501708984375,7.701000213623047,0.009000000543892384
1784194478906155800,12.68715576171875,5.434950351715088,7.818000316619873,0.3679500222206116
1784194478916240000,12.697239990234374,6.618000507354736,7.7659502029418945,0.2440500110387802
1784194478926324000,12.707323974609375,5.955000400543213,7.690950393676758,0.28200000524520874
1784194478936408300,12.717408203125,5.859000205993652,7.689000129699707,0.28395000100135803
1784194478946492200,12.7274921875,6.391050338745117,7.70805025100708,0.009000000543892384
1784194478956576300,12.737576171875,6.232950210571289,7.8160505294799805,0.44505003094673157
1784194478966660400,12.747660400390625,5.91195011138916,7.7149505615234375,0.06405000388622284
1784194478976744400,12.757744384765624,6.003000259399414,7.7440505027771,0.11700000613927841
1784194478986828500,12.76782861328125,6.229950428009033,7.663050174713135,0.14595000445842743
1784194478996912600,12.77791259765625,5.863950252532959,7.758000373840332,-0.1380000114440918
1784194479006996700,12.787996826171875,6.235050201416016,7.684050559997559,0.3540000021457672
1784194479017080800,12.798080810546875,6.127050399780273,7.651050567626953,-0.3040500283241272
1784194479027165000,12.8081650390625,5.75100040435791,7.7059502601623535,-0.031050002202391624
1784194479037249000,12.8182490234375,5.767950057983398,7.73205041885376,0.1579500138759613
1784194479047333000,12.8283330078125,6.3349504470825195,7.660050392150879,-0.25095000863075256
1784194479057417200,12.838417236328125,5.755950450897217,7.657950401306152,0.2959500253200531
1784194479067501300,12.848501220703126,5.9760003089904785,7.681950569152832,-0.4210500121116638
1784194479077585400,12.85858544921875,6.007050514221191,7.653000354766846,0.16695000231266022
1784194479087669500,12.86866943359375,5.518950462341309,7.678950309753418,-0.07905000448226929
1784194479097753600,12.878753662109375,6.060000419616699,7.627050399780273,-0.10200000554323196
1784194479107837700,12.888837646484374,5.7109503746032715,7.588050365447998,0.06405000388622284
1784194479117921800,12.898921875,5.773050308227539,7.612050533294678,-0.22905001044273376
1784194479128006000,12.909005859375,5.995050430297852,7.6080002784729,0.09000000357627869
1784194479138090000,12.919090087890625,5.779950141906738,7.621950149536133,0.06705000251531601
1784194479148174000,12.929174072265624,5.773050308227539,7.617000579833984,-0.37995001673698425
1784194479158258200,12.939258056640625,5.653050422668457,7.7749505043029785,0.019050000235438347
1784194479168342300,12.94934228515625,6.100950241088867,7.629000186920166,-0.07395000010728836
1784194479178426400,12.95942626953125,5.8690505027771,7.629000186920166,-0.23400001227855682
1784194479188510500,12.969510498046875,5.707950115203857,7.818000316619873,0.18405000865459442
1784194479198594300,12.97959423828125,6.160950183868408,7.777950286865234,-0.21000000834465027
1784194479208678400,12.989678466796875,5.860950469970703,7.7440505027771,0.1789500117301941
1784194479218762800,12.9997626953125,5.775000095367432,7.621950149536133,-0.16500000655651093
1784194479228846800,13.009846923828125,5.638950347900391,7.701000213623047,-0.21300001442432404
1784194479238930700,13.0199306640625,6.180000305175781,7.5859503746032715,0.3349500298500061
1784194479249014800,13.030014892578125,5.433000087738037,7.528950214385986,-0.34200000762939453
1784194479259099000,13.040098876953126,5.545050144195557,7.504950523376465,0.2650500237941742
1784194479269183000,13.050182861328125,6.154050350189209,7.528950214385986,-0.2580000162124634
1784194479279267000,13.06026708984375,5.8470001220703125,7.615050315856934,-0.05205000191926956
