time,seconds_elapsed,z,y,x
1784194466351423000,0.132423095703125,6.070050239562988,7.701000213623047,-0.1189500093460083
1784194466361524200,0.142524169921875,6.070050239562988,7.701000213623047,-0.11700000613927841
1784194466371678700,0.1526787109375,6.060000419616699,7.701000213623047,-0.11400000751018524
1784194466381666000,0.162666015625,6.060000419616699,7.69605016708374,-0.11700000613927841
1784194466391767300,0.172767333984375,6.067050457000732,7.701000213623047,-0.11700000613927841
1784194466401838000,0.182838134765625,6.063000202178955,7.702950477600098,-0.12195000797510147
1784194466411939300,0.192939208984375,6.060000419616699,7.701000213623047,-0.12405000627040863
1784194466422098700,0.2030986328125,6.064950466156006,7.701000213623047,-0.11700000613927841
1784194466432183000,0.21318310546875,6.067050457000732,7.7059502601623535,-0.11400000751018524
1784194466442267000,0.223266845703125,6.064950466156006,7.7059502601623535,-0.1189500093460083
1784194466452351000,0.23335107421875,6.067050457000732,7.698000431060791,-0.12195000797510147
1784194466462324000,0.243323974609375,6.064950466156006,7.702950477600098,-0.1189500093460083
1784194466472519000,0.253518798828125,6.055050373077393,7.701000213623047,-0.11400000751018524
1784194466482526700,0.263526611328125,6.055050373077393,7.698000431060791,-0.11400000751018524
1784194466492567000,0.273567138671875,6.060000419616699,7.701000213623047,-0.1189500093460083
1784194466502668300,0.283668212890625,6.058050155639648,7.701000213623047,-0.1189500093460083
1784194466512739000,0.293739013671875,6.058050155639648,7.7059502601623535,-0.11400000751018524
1784194466522939000,0.30393896484375,6.063000202178955,7.7059502601623535,-0.11205000430345535
1784194466532941800,0.31394189453125,6.060000419616699,7.7059502601623535,-0.11700000613927841
1784194466543106800,0.32410693359375,6.058050155639648,7.702950477600098,-0.1189500093460083
1784194466553083400,0.33408349609375,6.058050155639648,7.698000431060791,-0.1099500060081482
1784194466563275000,0.34427490234375,6.060000419616699,7.698000431060791,-0.11205000430345535
1784194466573359000,0.354359130859375,6.063000202178955,7.702950477600098,-0.12405000627040863
1784194466583357000,0.36435693359375,6.055050373077393,7.701000213623047,-0.12195000797510147
1784194466593458200,0.374458251953125,6.058050155639648,7.702950477600098,-0.1189500093460083
1784194466603529000,0.384529052734375,6.067050457000732,7.70805025100708,-0.11400000751018524
1784194466613630200,0.394630126953125,6.070050239562988,7.701000213623047,-0.11205000430345535
1784194466623701000,0.404700927734375,6.064950466156006,7.701000213623047,-0.11700000613927841
1784194466633741300,0.4147412109375,6.058050155639648,7.698000431060791,-0.1099500060081482
1784194466643842600,0.424842529296875,6.067050457000732,7.698000431060791,-0.1099500060081482
1784194466653913300,0.434913330078125,6.072000503540039,7.702950477600098,-0.1189500093460083
1784194466664115000,0.445114990234375,6.064950466156006,7.702950477600098,-0.1189500093460083
1784194466674199000,0.455198974609375,6.067050457000732,7.702950477600098,-0.11400000751018524
1784194466684283000,0.465282958984375,6.075000286102295,7.70805025100708,-0.1189500093460083
1784194466694288100,0.4752880859375,6.064950466156006,7.701000213623047,-0.12405000627040863
1784194466704389400,0.485389404296875,6.063000202178955,7.701000213623047,-0.11400000751018524
1784194466714429700,0.4954296875,6.075000286102295,7.7059502601623535,-0.11205000430345535
1784194466724619000,0.505618896484375,6.075000286102295,7.701000213623047,-0.11700000613927841
1784194466734632400,0.515632568359375,6.064950466156006,7.69605016708374,-0.11700000613927841
1784194466744672800,0.5256728515625,6.070050239562988,7.701000213623047,-0.1099500060081482
1784194466754804200,0.53580419921875,6.072000503540039,7.702950477600098,-0.11205000430345535
1784194466764875300,0.545875244140625,6.067050457000732,7.701000213623047,-0.1189500093460083
1784194466775039000,0.5560390625,6.067050457000732,7.701000213623047,-0.1189500093460083
1784194466785123000,0.566123046875,6.067050457000732,7.701000213623047,-0.12195000797510147
1784194466795207000,0.57620703125,6.064950466156006,7.698000431060791,-0.11700000613927841
1784194466805188900,0.58618896484375,6.060000419616699,7.701000213623047,-0.11400000751018524
1784194466815290000,0.5962900390625,6.063000202178955,7.702950477600098,-0.11400000751018524
1784194466825361000,0.60636083984375,6.067050457000732,7.7059502601623535,-0.11700000613927841
1784194466835431700,0.616431640625,6.060000419616699,7.702950477600098,-0.12195000797510147
1784194466845627000,0.626626953125,6.060000419616699,7.7059502601623535,-0.12600000202655792
1784194466855634400,0.636634521484375,6.067050457000732,7.702950477600098,-0.11700000613927841
1784194466865705200,0.646705322265625,6.070050239562988,7.702950477600098,-0.11700000613927841
1784194466875776000,0.65677587890625,6.063000202178955,7.7059502601623535,-0.12195000797510147
1784194466885877500,0.66687744140625,6.064950466156006,7.701000213623047,-0.11400000751018524
1784194466896047000,0.677047119140625,6.075000286102295,7.701000213623047,-0.10695000737905502
1784194466906131200,0.687131103515625,6.072000503540039,7.701000213623047,-0.11400000751018524
1784194466916215000,0.697215087890625,6.070050239562988,7.698000431060791,-0.12195000797510147
1784194466926221600,0.7072216796875,6.075000286102295,7.701000213623047,-0.11205000430345535
1784194466936292400,0.717292236328125,6.072000503540039,7.701000213623047,-0.11205000430345535
1784194466946467000,0.727467041015625,6.067050457000732,7.701000213623047,-0.1189500093460083
1784194466956434000,0.737433837890625,6.075000286102295,7.7059502601623535,-0.12405000627040863
1784194466966565600,0.747565673828125,6.079050064086914,7.70805025100708,-0.11400000751018524
1784194466976606000,0.75760595703125,6.075000286102295,7.702950477600098,-0.11700000613927841
1784194466986738000,0.767738037109375,6.072000503540039,7.698000431060791,-0.1189500093460083
1784194466996887000,0.777886962890625,6.072000503540039,7.701000213623047,-0.1189500093460083
1784194467006971100,0.78797119140625,6.0769500732421875,7.701000213623047,-0.1189500093460083
1784194467016980700,0.797980712890625,6.072000503540039,7.698000431060791,-0.11700000613927841
1784194467027021000,0.80802099609375,6.070050239562988,7.701000213623047,-0.11400000751018524
1784194467037152800,0.81815283203125,6.0769500732421875,7.701000213623047,-0.11700000613927841
1784194467047307000,0.82830712890625,6.075000286102295,7.702950477600098,-0.11400000751018524
1784194467057325000,0.838324951171875,6.070050239562988,7.702950477600098,-0.11400000751018524
1784194467067395800,0.848395751953125,6.075000286102295,7.69605016708374,-0.11700000613927841
1784194467077466600,0.858466552734375,6.075000286102295,7.69605016708374,-0.11700000613927841
1784194467087568000,0.86856787109375,6.070050239562988,7.698000431060791,-0.11700000613927841
1784194467097727200,0.878727294921875,6.070050239562988,7.701000213623047,-0.11400000751018524
1784194467107709700,0.888709716796875,6.063000202178955,7.7059502601623535,-0.11205000430345535
1784194467117810700,0.898810791015625,6.063000202178955,7.7059502601623535,-0.11205000430345535
1784194467127979300,0.908979248046875,6.075000286102295,7.701000213623047,-0.11205000430345535
1784194467138063400,0.9190634765625,6.072000503540039,7.702950477600098,-0.10695000737905502
1784194467148147200,0.929147216796875,6.060000419616699,7.702950477600098,-0.10500000417232513
1784194467158155300,0.9391552734375,6.067050457000732,7.701000213623047,-0.1099500060081482
1784194467168225800,0.949225830078125,6.070050239562988,7.69605016708374,-0.1099500060081482
1784194467178296600,0.959296630859375,6.072000503540039,7.698000431060791,-0.1099500060081482
1784194467188398000,0.969398193359375,6.072000503540039,7.701000213623047,-0.1189500093460083
1784194467198499600,0.97949951171875,6.070050239562988,7.698000431060791,-0.1189500093460083
1784194467208539600,0.98953955078125,6.070050239562988,7.698000431060791,-0.11700000613927841
1784194467218671600,0.999671630859375,6.072000503540039,7.693950176239014,-0.12405000627040863
1784194467228712000,1.0097119140625,6.072000503540039,7.69605016708374,-0.12405000627040863
1784194467238813200,1.019813232421875,6.075000286102295,7.698000431060791,-0.12195000797510147
1784194467248914400,1.02991455078125,6.079050064086914,7.701000213623047,-0.12195000797510147
1784194467258985200,1.039985107421875,6.075000286102295,7.702950477600098,-0.12195000797510147
1784194467269056000,1.050055908203125,6.072000503540039,7.702950477600098,-0.11700000613927841
1784194467279157500,1.060157470703125,6.0769500732421875,7.702950477600098,-0.11205000430345535
1784194467289258800,1.0702587890625,6.070050239562988,7.702950477600098,-0.1099500060081482
1784194467299329500,1.08032958984375,6.072000503540039,7.7059502601623535,-0.1099500060081482
1784194467309369900,1.090369873046875,6.079050064086914,7.7059502601623535,-0.10695000737905502
1784194467319575600,1.100575439453125,6.070050239562988,7.702950477600098,-0.10695000737905502
1784194467329659600,1.11065966796875,6.064950466156006,7.7059502601623535,-0.10695000737905502
1784194467339743500,1.120743408203125,6.075000286102295,7.710000514984131,-0.10695000737905502
1784194467349744600,1.13074462890625,6.082050323486328,7.7059502601623535,-0.11700000613927841
1784194467359846000,1.140845947265625,6.075000286102295,7.698000431060791,-0.1290000081062317
1784194467369886200,1.15088623046875,6.0769500732421875,7.69605016708374,-0.1380000114440918
1784194467379987500,1.160987548828125,6.084000110626221,7.69605016708374,-0.1290000081062317
1784194467390058200,1.171058349609375,6.075000286102295,7.69605016708374,-0.1189500093460083
1784194467400129000,1.18112890625,6.064950466156006,7.689000129699707,-0.10695000737905502
1784194467410261000,1.191260986328125,6.072000503540039,7.684050559997559,-0.11205000430345535
1784194467420415700,1.201415771484375,6.070050239562988,7.684050559997559,-0.1360500007867813
1784194467430433000,1.21143310546875,6.060000419616699,7.6870503425598145,-0.14100000262260437
1784194467440503800,1.22150390625,6.064950466156006,7.6870503425598145,-0.1380000114440918
1784194467450574600,1.23157470703125,6.067050457000732,7.717950344085693,-0.13395000994205475
1784194467460645600,1.241645751953125,6.072000503540039,7.701000213623047,-0.0499500036239624
1784194467470836000,1.2518359375,6.0769500732421875,7.684050559997559,-0.07395000010728836
1784194467480848100,1.26184814453125,6.064950466156006,7.726950168609619,-0.22500000894069672
1784194467490919000,1.2719189453125,6.058050155639648,7.7149505615234375,-0.13095000386238098
1784194467501088000,1.282087890625,6.094050407409668,7.702950477600098,-0.034950003027915955
1784194467511172000,1.292172119140625,6.091050148010254,7.725000381469727,-0.13095000386238098
1784194467521256200,1.302256103515625,6.051000118255615,7.729950428009033,-0.1789500117301941
1784194467531232800,1.312232666015625,6.075000286102295,7.717950344085693,-0.1099500060081482
1784194467541334000,1.322333984375,6.091050148010254,7.7149505615234375,-0.06705000251531601
1784194467551435300,1.332435302734375,6.064950466156006,7.713000297546387,-0.13395000994205475
1784194467561475600,1.3424755859375,6.058050155639648,7.70805025100708,-0.14805001020431519
1784194467571676200,1.35267626953125,6.075000286102295,7.701000213623047,-0.10005000233650208
1784194467581647600,1.362647705078125,6.064950466156006,7.698000431060791,-0.0880500078201294
1784194467591844000,1.372843994140625,6.060000419616699,7.693950176239014,-0.12600000202655792
1784194467601820000,1.38281982421875,6.064950466156006,7.6870503425598145,-0.13395000994205475
1784194467611890700,1.392890625,6.070050239562988,7.681950569152832,-0.09795000404119492
1784194467622096100,1.40309619140625,6.075000286102295,7.678950309753418,-0.10200000554323196
1784194467632062700,1.413062744140625,6.070050239562988,7.678950309753418,-0.12600000202655792
1784194467642194700,1.423194580078125,6.067050457000732,7.677000522613525,-0.11400000751018524
1784194467652235000,1.433235107421875,6.075000286102295,7.678950309753418,-0.09300000220537186
1784194467662366700,1.44336669921875,6.082050323486328,7.6870503425598145,-0.10500000417232513
1784194467672516400,1.453516357421875,6.072000503540039,7.690950393676758,-0.1290000081062317
1784194467682600200,1.46360009765625,6.064950466156006,7.693950176239014,-0.11400000751018524
1784194467692684300,1.473684326171875,6.082050323486328,7.693950176239014,-0.10005000233650208
1784194467702768400,1.483768310546875,6.079050064086914,7.698000431060791,-0.11400000751018524
1784194467712781600,1.493781494140625,6.063000202178955,7.7059502601623535,-0.12600000202655792
1784194467722936300,1.503936279296875,6.072000503540039,7.7059502601623535,-0.1189500093460083
1784194467732953900,1.513953857421875,6.079050064086914,7.702950477600098,-0.10695000737905502
1784194467742994200,1.523994140625,6.064950466156006,7.710000514984131,-0.12405000627040863
1784194467753126000,1.5341259765625,6.060000419616699,7.7149505615234375,-0.13395000994205475
1784194467763166200,1.544166259765625,6.072000503540039,7.713000297546387,-0.1189500093460083
1784194467773356500,1.5543564453125,6.070050239562988,7.710000514984131,-0.11400000751018524
1784194467783368700,1.56436865234375,6.060000419616699,7.710000514984131,-0.1290000081062317
1784194467793434600,1.5744345703125,6.063000202178955,7.713000297546387,-0.13395000994205475
1784194467803510500,1.584510498046875,6.064950466156006,7.710000514984131,-0.12195000797510147
1784194467813581300,1.594581298828125,6.055050373077393,7.70805025100708,-0.1189500093460083
1784194467823682300,1.604682373046875,6.058050155639648,7.7059502601623535,-0.1380000114440918
1784194467833753300,1.61475341796875,6.063000202178955,7.7059502601623535,-0.1380000114440918
1784194467843854600,1.6248544921875,6.060000419616699,7.70805025100708,-0.12600000202655792
1784194467853956000,1.6349560546875,6.063000202178955,7.7059502601623535,-0.12405000627040863
1784194467864112600,1.645112548828125,6.064950466156006,7.7059502601623535,-0.12600000202655792
1784194467874196700,1.65519677734375,6.060000419616699,7.701000213623047,-0.12195000797510147
1784194467884280800,1.66528076171875,6.063000202178955,7.69605016708374,-0.11700000613927841
1784194467894269700,1.675269775390625,6.067050457000732,7.690950393676758,-0.1189500093460083
1784194467904340500,1.685340576171875,6.075000286102295,7.690950393676758,-0.12195000797510147
1784194467914411300,1.695411376953125,6.075000286102295,7.693950176239014,-0.1099500060081482
1784194467924617000,1.705616943359375,6.0769500732421875,7.690950393676758,-0.10695000737905502
1784194467934614000,1.715614013671875,6.0769500732421875,7.690950393676758,-0.10500000417232513
1784194467944684800,1.725684814453125,6.070050239562988,7.690950393676758,-0.10200000554323196
1784194467954869000,1.735868896484375,6.075000286102295,7.693950176239014,-0.09495000541210175
1784194467964887300,1.74588720703125,6.082050323486328,7.69605016708374,-0.09795000404119492
1784194467975004400,1.75600439453125,6.079050064086914,7.698000431060791,-0.10005000233650208
1784194467985121000,1.76612109375,6.072000503540039,7.701000213623047,-0.10005000233650208
1784194467995205000,1.776205078125,6.0769500732421875,7.7059502601623535,-0.09495000541210175
1784194468005201200,1.786201171875,6.082050323486328,7.702950477600098,-0.09300000220537186
1784194468015302400,1.796302490234375,6.072000503540039,7.702950477600098,-0.09495000541210175
1784194468025373400,1.80637353515625,6.067050457000732,7.7059502601623535,-0.09495000541210175
1784194468035474700,1.816474609375,6.070050239562988,7.710000514984131,-0.09495000541210175
1784194468045625300,1.826625244140625,6.058050155639648,7.7059502601623535,-0.09795000404119492
1784194468055709400,1.83670947265625,6.051000118255615,7.7059502601623535,-0.10200000554323196
1784194468065793300,1.846793212890625,6.060000419616699,7.702950477600098,-0.10500000417232513
1784194468075757800,1.8567578125,6.055050373077393,7.701000213623047,-0.10695000737905502
1784194468085859000,1.866859130859375,6.048000335693359,7.701000213623047,-0.11205000430345535
1784194468101087500,1.88208740234375,6.052950382232666,7.69605016708374,-0.12195000797510147
1784194468111171300,1.89217138671875,6.046050071716309,7.698000431060791,-0.11700000613927841
1784194468121255400,1.90225537109375,6.064950466156006,7.690950393676758,-0.13095000386238098
1784194468131339500,1.912339599609375,6.039000511169434,7.689000129699707,-0.1290000081062317
1784194468141423600,1.922423583984375,6.070050239562988,7.69605016708374,-0.12405000627040863
1784194468151507500,1.932507568359375,6.058050155639648,7.693950176239014,-0.12600000202655792
1784194468161591600,1.942591552734375,6.0769500732421875,7.701000213623047,-0.1290000081062317
1784194468171675600,1.952675537109375,6.064950466156006,7.69605016708374,-0.14100000262260437
1784194468181759700,1.962759765625,6.070050239562988,7.702950477600098,-0.1360500007867813
1784194468191843600,1.972843505859375,6.063000202178955,7.7059502601623535,-0.1380000114440918
1784194468201927700,1.982927734375,6.0769500732421875,7.70805025100708,-0.1360500007867813
1784194468212011800,1.99301171875,6.082050323486328,7.702950477600098,-0.1360500007867813
1784194468222095600,2.003095703125,6.060000419616699,7.702950477600098,-0.1380000114440918
1784194468232179700,2.0131796875,6.075000286102295,7.713000297546387,-0.1360500007867813
1784194468242263800,2.023263916015625,6.088950157165527,7.70805025100708,-0.13095000386238098
1784194468252348000,2.033347900390625,6.084000110626221,7.702950477600098,-0.1360500007867813
1784194468262432000,2.043431884765625,6.064950466156006,7.701000213623047,-0.13395000994205475
1784194468272515800,2.053515869140625,6.070050239562988,7.698000431060791,-0.13395000994205475
1784194468282600000,2.063599853515625,6.0769500732421875,7.698000431060791,-0.1189500093460083
1784194468292683800,2.073683837890625,6.060000419616699,7.690950393676758,-0.12195000797510147
1784194468302767900,2.083767822265625,6.075000286102295,7.69605016708374,-0.11205000430345535
1784194468312852000,2.09385205078125,6.072000503540039,7.689000129699707,-0.11400000751018524
1784194468322935800,2.103935791015625,6.052950382232666,7.689000129699707,-0.10695000737905502
1784194468333020000,2.11402001953125,6.064950466156006,7.698000431060791,-0.10500000417232513
1784194468343104000,2.12410400390625,6.067050457000732,7.69605016708374,-0.10500000417232513
1784194468353188000,2.13418798828125,6.064950466156006,7.698000431060791,-0.09000000357627869
1784194468363272200,2.144272216796875,6.039000511169434,7.7059502601623535,-0.09300000220537186
1784194468373356300,2.154356201171875,6.064950466156006,7.69605016708374,-0.09795000404119492
1784194468383440100,2.164440185546875,6.058050155639648,7.702950477600098,-0.09000000357627869
1784194468393524200,2.174524169921875,6.039000511169434,7.698000431060791,-0.0880500078201294
1784194468403608300,2.1846083984375,6.055050373077393,7.70805025100708,-0.1099500060081482
1784194468413692400,2.1946923828125,6.055050373077393,7.693950176239014,-0.10005000233650208
1784194468423776300,2.2047763671875,6.040950298309326,7.701000213623047,-0.09795000404119492
1784194468433860400,2.2148603515625,6.055050373077393,7.70805025100708,-0.10005000233650208
1784194468443944400,2.2249443359375,6.064950466156006,7.7059502601623535,-0.1099500060081482
1784194468454028300,2.2350283203125,6.052950382232666,7.702950477600098,-0.10500000417232513
1784194468464112400,2.2451123046875,6.052950382232666,7.69605016708374,-0.11205000430345535
1784194468474196500,2.255196533203125,6.070050239562988,7.698000431060791,-0.10500000417232513
1784194468484280600,2.265280517578125,6.055050373077393,7.69605016708374,-0.11400000751018524
1784194468494364700,2.27536474609375,6.055050373077393,7.698000431060791,-0.1189500093460083
1784194468504448500,2.285448486328125,6.0769500732421875,7.693950176239014,-0.12405000627040863
1784194468514532600,2.29553271484375,6.055050373077393,7.698000431060791,-0.12405000627040863
1784194468524616700,2.30561669921875,6.060000419616699,7.7059502601623535,-0.1290000081062317
1784194468534700800,2.31570068359375,6.084000110626221,7.7149505615234375,-0.13095000386238098
1784194468544784600,2.32578466796875,6.091050148010254,7.684050559997559,-0.15495000779628754
1784194468554868700,2.33586865234375,6.027000427246094,7.70805025100708,-0.10200000554323196
1784194468564952800,2.345952880859375,6.084000110626221,7.717950344085693,-0.13395000994205475
1784194468575037000,2.356036865234375,6.12000036239624,7.701000213623047,-0.1189500093460083
1784194468585120800,2.366120849609375,6.022050380706787,7.69605016708374,-0.14805001020431519
1784194468595204900,2.376204833984375,6.051000118255615,7.7149505615234375,-0.13095000386238098
1784194468605289000,2.3862890625,6.13200044631958,7.698000431060791,-0.09795000404119492
1784194468615373000,2.396373046875,6.019050121307373,7.702950477600098,-0.13395000994205475
1784194468625457200,2.40645703125,6.051000118255615,7.7059502601623535,-0.13095000386238098
1784194468635541000,2.416541015625,6.103050231933594,7.698000431060791,-0.1099500060081482
1784194468645625000,2.426625,6.039000511169434,7.698000431060791,-0.1099500060081482
1784194468655709200,2.436709228515625,6.039000511169434,7.69605016708374,-0.1360500007867813
1784194468665793000,2.44679296875,6.082050323486328,7.689000129699707,-0.13095000386238098
1784194468675877000,2.456877197265625,6.051000118255615,7.689000129699707,-0.08595000207424164
1784194468685961200,2.466961181640625,6.004950523376465,7.6870503425598145,-0.11400000751018524
1784194468696045300,2.47704541015625,6.0769500732421875,7.684050559997559,-0.13095000386238098
1784194468706129400,2.48712939453125,6.058050155639648,7.690950393676758,-0.11400000751018524
1784194468716213500,2.497213623046875,6.01200008392334,7.69605016708374,-0.09000000357627869
1784194468726297300,2.50729736328125,6.0859503746032715,7.702950477600098,-0.10200000554323196
1784194468736381400,2.51738134765625,6.079050064086914,7.70805025100708,-0.14100000262260437
1784194468746465500,2.527465576171875,6.0360002517700195,7.702950477600098,-0.09795000404119492
1784194468756549400,2.53754931640625,6.070050239562988,7.713000297546387,-0.0880500078201294
1784194468766633500,2.547633544921875,6.103050231933594,7.725000381469727,-0.1360500007867813
1784194468776717600,2.557717529296875,6.075000286102295,7.72005033493042,-0.12600000202655792
1784194468786801700,2.5678017578125,6.052950382232666,7.7149505615234375,-0.10695000737905502
1784194468796885800,2.5778857421875,6.0960001945495605,7.725000381469727,-0.10500000417232513
1784194468806969600,2.587969482421875,6.0859503746032715,7.7149505615234375,-0.1360500007867813
1784194468817053700,2.5980537109375,6.055050373077393,7.726950168609619,-0.12600000202655792
1784194468827137800,2.6081376953125,6.0859503746032715,7.7149505615234375,-0.11400000751018524
1784194468837221600,2.6182216796875,6.072000503540039,7.70805025100708,-0.11205000430345535
1784194468847305700,2.6283056640625,6.052950382232666,7.710000514984131,-0.13395000994205475
1784194468857389800,2.638389892578125,6.052950382232666,7.690950393676758,-0.14100000262260437
1784194468867473700,2.6484736328125,6.060000419616699,7.690950393676758,-0.11400000751018524
1784194468877557800,2.658557861328125,6.039000511169434,7.684050559997559,-0.11700000613927841
1784194468887641900,2.668641845703125,6.040950298309326,7.678950309753418,-0.1290000081062317
1784194468897726000,2.678725830078125,6.048000335693359,7.684050559997559,-0.1290000081062317
1784194468907810000,2.68881005859375,6.040950298309326,7.681950569152832,-0.13095000386238098
1784194468917894000,2.698893798828125,6.034050464630127,7.677000522613525,-0.1099500060081482
1784194468927978000,2.70897802734375,6.043050289154053,7.678950309753418,-0.1290000081062317
1784194468938062000,2.71906201171875,6.034050464630127,7.689000129699707,-0.1360500007867813
1784194468948146200,2.729146240234375,6.040950298309326,7.681950569152832,-0.11700000613927841
1784194468958230000,2.73922998046875,6.048000335693359,7.690950393676758,-0.13395000994205475
1784194468968314000,2.749314208984375,6.040950298309326,7.6870503425598145,-0.1189500093460083
1784194468978398200,2.759398193359375,6.043050289154053,7.693950176239014,-0.12405000627040863
1784194468988482000,2.76948193359375,6.048000335693359,7.702950477600098,-0.12405000627040863
1784194468998566100,2.779566162109375,6.052950382232666,7.702950477600098,-0.1099500060081482
1784194469008650200,2.789650146484375,6.063000202178955,7.69605016708374,-0.1189500093460083
1784194469018734300,2.799734375,6.075000286102295,7.701000213623047,-0.12405000627040863
1784194469028818400,2.809818359375,6.060000419616699,7.702950477600098,-0.1189500093460083
1784194469038902300,2.81990234375,6.075000286102295,7.698000431060791,-0.10005000233650208
1784194469048986400,2.829986328125,6.075000286102295,7.717950344085693,-0.09795000404119492
1784194469059070500,2.840070556640625,6.064950466156006,7.717950344085693,-0.10500000417232513
1784194469069154300,2.850154296875,6.0859503746032715,7.72005033493042,-0.09795000404119492
1784194469079238400,2.86023828125,6.067050457000732,7.7149505615234375,-0.10005000233650208
1784194469089322500,2.870322509765625,6.072000503540039,7.717950344085693,-0.09495000541210175
1784194469099406300,2.88040625,6.088950157165527,7.717950344085693,-0.10005000233650208
1784194469109490400,2.890490478515625,6.072000503540039,7.7149505615234375,-0.09495000541210175
1784194469119574500,2.900574462890625,6.072000503540039,7.70805025100708,-0.09795000404119492
1784194469129658600,2.91065869140625,6.072000503540039,7.7059502601623535,-0.09000000357627869
1784194469139742700,2.92074267578125,6.075000286102295,7.713000297546387,-0.10200000554323196
1784194469149826600,2.93082666015625,6.079050064086914,7.7059502601623535,-0.10695000737905502
1784194469159910700,2.94091064453125,6.072000503540039,7.701000213623047,-0.10695000737905502
1784194469169994800,2.950994873046875,6.082050323486328,7.69605016708374,-0.1189500093460083
1784194469180078600,2.96107861328125,6.075000286102295,7.69605016708374,-0.12195000797510147
1784194469190163000,2.971162841796875,6.0769500732421875,7.6870503425598145,-0.12405000627040863
1784194469200246800,2.981246826171875,6.067050457000732,7.681950569152832,-0.11700000613927841
1784194469210331000,2.991330810546875,6.072000503540039,7.678950309753418,-0.12600000202655792
1784194469220415000,3.0014150390625,6.084000110626221,7.684050559997559,-0.13395000994205475
1784194469230498800,3.011498779296875,6.063000202178955,7.681950569152832,-0.1360500007867813
1784194469240583000,3.0215830078125,6.063000202178955,7.684050559997559,-0.12405000627040863
1784194469250667000,3.0316669921875,6.063000202178955,7.690950393676758,-0.1360500007867813
1784194469260751000,3.041751220703125,6.058050155639648,7.684050559997559,-0.14100000262260437
1784194469270835200,3.051835205078125,6.048000335693359,7.678950309753418,-0.13095000386238098
1784194469280919300,3.061919189453125,6.060000419616699,7.689000129699707,-0.14295001327991486
1784194469291003100,3.072003173828125,6.058050155639648,7.6870503425598145,-0.1290000081062317
1784194469301087200,3.082087158203125,6.034050464630127,7.701000213623047,-0.1380000114440918
1784194469311171300,3.09217138671875,6.046050071716309,7.702950477600098,-0.15000000596046448
1784194469321255400,3.10225537109375,6.046050071716309,7.69605016708374,-0.12405000627040863
1784194469331339500,3.112339599609375,6.031050205230713,7.701000213623047,-0.1360500007867813
1784194469341423400,3.12242333984375,6.046050071716309,7.702950477600098,-0.1290000081062317
1784194469351507500,3.132507568359375,6.048000335693359,7.702950477600098,-0.11400000751018524
1784194469361591600,3.142591552734375,6.0360002517700195,7.710000514984131,-0.12405000627040863
1784194469371675600,3.152675537109375,6.051000118255615,7.72005033493042,-0.11400000751018524
1784194469381759500,3.162759521484375,6.046050071716309,7.717950344085693,-0.1189500093460083
1784194469391843600,3.172843505859375,6.052950382232666,7.722000598907471,-0.10005000233650208
1784194469401927700,3.182927734375,6.048000335693359,7.717950344085693,-0.09795000404119492
1784194469412011800,3.19301171875,6.051000118255615,7.717950344085693,-0.10500000417232513
1784194469422096000,3.203095947265625,6.063000202178955,7.7149505615234375,-0.09795000404119492
1784194469432179700,3.2131796875,6.058050155639648,7.70805025100708,-0.08100000023841858
1784194469442263800,3.223263916015625,6.060000419616699,7.710000514984131,-0.09000000357627869
1784194469452348000,3.233347900390625,6.063000202178955,7.713000297546387,-0.08295000344514847
1784194469462431700,3.243431640625,6.055050373077393,7.701000213623047,-0.08595000207424164
1784194469472515800,3.253515869140625,6.070050239562988,7.698000431060791,-0.08100000023841858
1784194469482599700,3.263599609375,6.075000286102295,7.702950477600098,-0.07905000448226929
1784194469492684000,3.27368408203125,6.064950466156006,7.693950176239014,-0.08295000344514847
1784194469502767900,3.283767822265625,6.060000419616699,7.690950393676758,-0.08295000344514847
1784194469512852000,3.29385205078125,6.067050457000732,7.690950393676758,-0.09000000357627869
1784194469522935800,3.303935791015625,6.070050239562988,7.684050559997559,-0.09300000220537186
1784194469533020200,3.314020263671875,6.060000419616699,7.6870503425598145,-0.10200000554323196
1784194469543104000,3.32410400390625,6.064950466156006,7.689000129699707,-0.12195000797510147
1784194469553188000,3.33418798828125,6.0769500732421875,7.681950569152832,-0.10695000737905502
1784194469563272200,3.344272216796875,6.058050155639648,7.677000522613525,-0.11700000613927841
1784194469573356000,3.35435595703125,6.055050373077393,7.684050559997559,-0.13095000386238098
1784194469583440100,3.364440185546875,6.075000286102295,7.693950176239014,-0.12405000627040863
1784194469593524200,3.374524169921875,6.075000286102295,7.693950176239014,-0.12600000202655792
1784194469603608300,3.3846083984375,6.048000335693359,7.69605016708374,-0.13395000994205475
1784194469613692200,3.394692138671875,6.075000286102295,7.701000213623047,-0.14100000262260437
1784194469623776300,3.4047763671875,6.072000503540039,7.702950477600098,-0.14100000262260437
1784194469633860400,3.4148603515625,6.058050155639648,7.7059502601623535,-0.14805001020431519
1784194469643944400,3.4249443359375,6.063000202178955,7.702950477600098,-0.15000000596046448
1784194469654028500,3.435028564453125,6.063000202178955,7.710000514984131,-0.14295001327991486
1784194469664112400,3.4451123046875,6.060000419616699,7.70805025100708,-0.14100000262260437
1784194469674196700,3.45519677734375,6.064950466156006,7.7149505615234375,-0.14295001327991486
1784194469684280600,3.465280517578125,6.058050155639648,7.702950477600098,-0.1360500007867813
1784194469694364700,3.47536474609375,6.048000335693359,7.710000514984131,-0.1360500007867813
1784194469704448800,3.48544873046875,6.055050373077393,7.710000514984131,-0.1380000114440918
1784194469714532900,3.495532958984375,6.052950382232666,7.7149505615234375,-0.13095000386238098
1784194469724617000,3.505616943359375,6.058050155639648,7.70805025100708,-0.13395000994205475
1784194469734700800,3.51570068359375,6.055050373077393,7.7059502601623535,-0.12600000202655792
1784194469744785000,3.525784912109375,6.058050155639648,7.7059502601623535,-0.12195000797510147
1784194469754869000,3.535868896484375,6.055050373077393,7.701000213623047,-0.12195000797510147
1784194469764953000,3.545953125,6.055050373077393,7.69605016708374,-0.09795000404119492
1784194469775037000,3.556036865234375,6.064950466156006,7.69605016708374,-0.10695000737905502
1784194469785121000,3.56612109375,6.052950382232666,7.693950176239014,-0.0880500078201294
1784194469795205000,3.576205078125,6.051000118255615,7.690950393676758,-0.09300000220537186
1784194469805289200,3.586289306640625,6.058050155639648,7.690950393676758,-0.09000000357627869
1784194469815373000,3.596373046875,6.070050239562988,7.69605016708374,-0.09795000404119492
1784194469825457200,3.60645703125,6.060000419616699,7.690950393676758,-0.09000000357627869
1784194469835541200,3.616541259765625,6.060000419616699,7.693950176239014,-0.0880500078201294
1784194469845625300,3.626625244140625,6.058050155639648,7.690950393676758,-0.09000000357627869
1784194469855709200,3.636709228515625,6.052950382232666,7.693950176239014,-0.08100000023841858
1784194469865793300,3.646793212890625,6.060000419616699,7.7059502601623535,-0.10500000417232513
1784194469875877400,3.65687744140625,6.064950466156006,7.701000213623047,-0.10005000233650208
1784194469885961500,3.66696142578125,6.063000202178955,7.693950176239014,-0.08595000207424164
1784194469896045600,3.677045654296875,6.064950466156006,7.702950477600098,-0.11205000430345535
1784194469906129700,3.687129638671875,6.067050457000732,7.7059502601623535,-0.11205000430345535
1784194469916213500,3.697213623046875,6.070050239562988,7.713000297546387,-0.1189500093460083
1784194469926297600,3.707297607421875,6.064950466156006,7.7059502601623535,-0.12405000627040863
1784194469936381700,3.717381591796875,6.075000286102295,7.702950477600098,-0.11700000613927841
1784194469946465500,3.727465576171875,6.063000202178955,7.7059502601623535,-0.12405000627040863
1784194469956549600,3.737549560546875,6.070050239562988,7.70805025100708,-0.1380000114440918
1784194469966633700,3.7476337890625,6.072000503540039,7.7059502601623535,-0.1360500007867813
1784194469976717800,3.7577177734375,6.064950466156006,7.701000213623047,-0.14295001327991486
1784194469986802000,3.767802001953125,6.052950382232666,7.7059502601623535,-0.1380000114440918
1784194469996885800,3.7778857421875,6.063000202178955,7.698000431060791,-0.15000000596046448
1784194470006969900,3.787969970703125,6.063000202178955,7.701000213623047,-0.1579500138759613
1784194470017054000,3.798053955078125,6.031050205230713,7.73205041885376,-0.12405000627040863
1784194470027138000,3.808137939453125,6.043050289154053,7.642950534820557,-0.12195000797510147
1784194470037222000,3.818221923828125,6.115050315856934,7.713000297546387,-0.28005000948905945
1784194470047306000,3.828305908203125,5.979000091552734,7.669950485229492,0.07905000448226929
1784194470057390000,3.83839013671875,6.12000036239624,7.69605016708374,-0.23205001652240753
1784194470067474200,3.84847412109375,5.932950496673584,7.672050476074219,-0.17400000989437103
1784194470077558000,3.85855810546875,6.154050350189209,7.701000213623047,0.009000000543892384
1784194470087642000,3.86864208984375,6.058050155639648,7.642950534820557,-0.25095000863075256
1784194470097726200,3.878726318359375,5.967000484466553,7.713000297546387,-0.022950001060962677
1784194470107810300,3.888810302734375,6.156000137329102,7.689000129699707,-0.08595000207424164
1784194470117894100,3.89889404296875,6.064950466156006,7.693950176239014,-0.2440500110387802
1784194470127978200,3.908978271484375,6.000000476837158,7.713000297546387,0.10200000554323196
1784194470138062300,3.919062255859375,6.106050491333008,7.7149505615234375,-0.2370000183582306
1784194470148146400,3.929146484375,6.0859503746032715,7.701000213623047,-0.0019500000635161996
1784194470158230300,3.939230224609375,6.067050457000732,7.722000598907471,-0.16200000047683716
1784194470168314400,3.949314453125,6.028950214385986,7.729950428009033,-0.04005000367760658
1784194470178398500,3.9593984375,6.130050182342529,7.717950344085693,-0.07395000010728836
1784194470188482600,3.969482666015625,6.103050231933594,7.746000289916992,-0.15000000596046448
1784194470198566700,3.979566650390625,5.950050354003906,7.710000514984131,-0.07605000585317612
1784194470208650500,3.989650390625,6.189000129699707,7.749000549316406,-0.09795000404119492
1784194470218734600,3.999734619140625,6.088950157165527,7.710000514984131,-0.05505000427365303
1784194470228818700,4.009818603515625,5.9760003089904785,7.70805025100708,-0.1860000044107437
1784194470238902800,4.01990283203125,6.139050483703613,7.725000381469727,-0.1099500060081482
1784194470248986600,4.029986572265625,6.091050148010254,7.678950309753418,-0.0690000057220459
1784194470259070700,4.04007080078125,6.0169501304626465,7.690950393676758,-0.17205001413822174
1784194470269154800,4.05015478515625,6.070050239562988,7.69605016708374,-0.12405000627040863
1784194470279239000,4.060239013671875,6.094050407409668,7.6650004386901855,-0.17205001413822174
1784194470289322800,4.07032275390625,6.010050296783447,7.666950225830078,-0.09000000357627869
1784194470299406800,4.08040673828125,6.040950298309326,7.663050174713135,-0.16695000231266022
1784194470309491000,4.090490966796875,6.048000335693359,7.6650004386901855,-0.18900001049041748
1784194470319575000,4.100574951171875,6.063000202178955,7.660050392150879,-0.12600000202655792
1784194470329659100,4.1106591796875,5.995050430297852,7.657950401306152,-0.15000000596046448
1784194470339743000,4.120742919921875,6.048000335693359,7.675050258636475,-0.16005000472068787
1784194470349827000,4.1308271484375,6.103050231933594,7.6870503425598145,-0.1770000010728836
1784194470359911200,4.1409111328125,5.986050128936768,7.684050559997559,-0.14295001327991486
1784194470369995300,4.150995361328125,6.052950382232666,7.702950477600098,-0.13095000386238098
1784194470380079000,4.1610791015625,6.1080002784729,7.713000297546387,-0.14100000262260437
1784194470390163500,4.17116357421875,6.027000427246094,7.7149505615234375,-0.15495000779628754
1784194470400247600,4.18124755859375,6.072000503540039,7.737000465393066,-0.1189500093460083
1784194470410331400,4.191331298828125,6.097950458526611,7.729950428009033,-0.1099500060081482
1784194470420415500,4.20141552734375,6.072000503540039,7.7440505027771,-0.12195000797510147
1784194470430499600,4.21149951171875,6.051000118255615,7.750950336456299,-0.12405000627040863
1784194470440583700,4.221583740234375,6.064950466156006,7.750950336456299,-0.10695000737905502
1784194470450667500,4.23166748046875,6.097950458526611,7.741950511932373,-0.09495000541210175
1784194470460751600,4.241751708984375,6.043050289154053,7.729950428009033,-0.09000000357627869
1784194470470835700,4.251835693359375,6.046050071716309,7.722000598907471,-0.10005000233650208
1784194470480919800,4.261919921875,6.0960001945495605,7.72005033493042,-0.08295000344514847
1784194470491004000,4.27200390625,6.034050464630127,7.69605016708374,-0.06405000388622284
1784194470501087700,4.282087646484375,6.0360002517700195,7.693950176239014,-0.07605000585317612
1784194470511171800,4.292171875,6.072000503540039,7.684050559997559,-0.07095000147819519
1784194470521256000,4.302255859375,6.043050289154053,7.684050559997559,-0.07605000585317612
1784194470531340000,4.312340087890625,6.010050296783447,7.672050476074219,-0.07095000147819519
1784194470541424000,4.322424072265625,6.052950382232666,7.657950401306152,-0.06195000186562538
1784194470551508200,4.33250830078125,6.075000286102295,7.663050174713135,-0.08595000207424164
1784194470561592000,4.342592041015625,6.028950214385986,7.6650004386901855,-0.07395000010728836
1784194470571676200,4.35267626953125,6.051000118255615,7.6650004386901855,-0.0690000057220459
1784194470581760000,4.362760009765625,6.091050148010254,7.663050174713135,-0.09000000357627869
1784194470591844000,4.372843994140625,6.043050289154053,7.675050258636475,-0.08295000344514847
1784194470601928200,4.38292822265625,6.058050155639648,7.677000522613525,-0.10005000233650208
1784194470612012300,4.39301220703125,6.100950241088867,7.693950176239014,-0.09795000404119492
1784194470622096400,4.403096435546875,6.063000202178955,7.690950393676758,-0.09795000404119492
1784194470632180500,4.413180419921875,6.0769500732421875,7.70805025100708,-0.12600000202655792
1784194470642264300,4.423264404296875,6.1080002784729,7.70805025100708,-0.12405000627040863
1784194470652348400,4.433348388671875,6.072000503540039,7.70805025100708,-0.1290000081062317
1784194470662432500,4.4434326171875,6.063000202178955,7.713000297546387,-0.14295001327991486
1784194470672516600,4.4535166015625,6.094050407409668,7.717950344085693,-0.1380000114440918
1784194470682600700,4.4636005859375,6.082050323486328,7.717950344085693,-0.16200000047683716
1784194470692684500,4.4736845703125,6.051000118255615,7.722000598907471,-0.16500000655651093
1784194470702768600,4.4837685546875,6.055050373077393,7.710000514984131,-0.16005000472068787
1784194470712852700,4.493852783203125,6.063000202178955,7.713000297546387,-0.16905000805854797
1784194470722936800,4.503936767578125,6.052950382232666,7.7149505615234375,-0.16905000805854797
1784194470733020700,4.514020751953125,6.034050464630127,7.70805025100708,-0.17400000989437103
1784194470743104800,4.524104736328125,6.063000202178955,7.70805025100708,-0.1770000010728836
1784194470753188900,4.53418896484375,6.051000118255615,7.70805025100708,-0.16905000805854797
1784194470763273000,4.54427294921875,6.034050464630127,7.693950176239014,-0.16695000231266022
1784194470773357000,4.554357177734375,6.052950382232666,7.701000213623047,-0.16200000047683716
1784194470783441000,4.56444091796875,6.048000335693359,7.69605016708374,-0.16500000655651093
1784194470793525000,4.57452490234375,6.028950214385986,7.6870503425598145,-0.16005000472068787
1784194470803609000,4.584609130859375,6.048000335693359,7.693950176239014,-0.15000000596046448
1784194470813693200,4.594693115234375,6.060000419616699,7.690950393676758,-0.1380000114440918
1784194470823777000,4.604777099609375,6.051000118255615,7.690950393676758,-0.13095000386238098
1784194470833861000,4.614861083984375,6.058050155639648,7.689000129699707,-0.11700000613927841
1784194470843945200,4.6249453125,6.067050457000732,7.690950393676758,-0.11700000613927841
1784194470854029300,4.635029296875,6.070050239562988,7.69605016708374,-0.09795000404119492
1784194470864113400,4.645113525390625,6.064950466156006,7.693950176239014,-0.09495000541210175
1784194470874197200,4.655197265625,6.070050239562988,7.701000213623047,-0.08100000023841858
1784194470884281300,4.66528125,6.088950157165527,7.690950393676758,-0.08100000023841858
1784194470894365400,4.675365478515625,6.064950466156006,7.693950176239014,-0.07095000147819519
1784194470904449500,4.685449462890625,6.064950466156006,7.690950393676758,-0.05895000323653221
1784194470914533600,4.69553369140625,6.088950157165527,7.701000213623047,-0.046950001269578934
1784194470924617500,4.705617431640625,6.064950466156006,7.693950176239014,-0.05895000323653221
1784194470934701600,4.71570166015625,6.052950382232666,7.69605016708374,-0.0499500036239624
1784194470944785700,4.72578564453125,6.060000419616699,7.698000431060791,-0.0499500036239624
1784194470954869800,4.735869873046875,6.039000511169434,7.657950401306152,-0.07395000010728836
1784194470964953600,4.74595361328125,6.040950298309326,7.689000129699707,-0.019050000235438347
1784194470975037700,4.75603759765625,6.0169501304626465,7.69605016708374,-0.39705002307891846
1784194470985121800,4.766121826171875,5.962050437927246,7.741950511932373,0.022950001060962677
1784194470995206000,4.776205810546875,6.2440505027771,7.681950569152832,0.3730500042438507
1784194471005290000,4.7862900390625,6.064950466156006,7.7440505027771,-0.04005000367760658
1784194471015374000,4.7963740234375,5.905050277709961,7.734000205993652,-0.4620000123977661
1784194471025458000,4.8064580078125,6.043050289154053,7.701000213623047,-0.10200000554323196
1784194471035542000,4.8165419921875,6.097950458526611,7.6870503425598145,0.11700000613927841
1784194471045626000,4.826626220703125,6.051000118255615,7.729950428009033,-0.11400000751018524
1784194471055710200,4.836710205078125,6.109950065612793,7.573950290679932,-0.2440500110387802
1784194471065794000,4.8467939453125,5.7300004959106445,7.879950523376465,-0.6559500098228455
1784194471075878100,4.856878173828125,6.273000240325928,7.722000598907471,0.0019500000635161996
1784194471085962000,4.8669619140625,6.133950233459473,7.560000419616699,0.6319500207901001
1784194471096046000,4.877046142578125,5.974050521850586,7.758000373840332,-0.3750000298023224
1784194471106130200,4.887130126953125,6.0360002517700195,7.830000400543213,-0.6480000019073486
1784194471116214300,4.89721435546875,6.0769500732421875,7.617000579833984,-0.0880500078201294
1784194471126298400,4.90729833984375,6.084000110626221,7.701000213623047,0.20805001258850098
1784194471136382200,4.91738232421875,6.154050350189209,7.681950569152832,-0.28005000948905945
1784194471146466300,4.92746630859375,5.983950138092041,7.729950428009033,-0.4350000321865082
1784194471156550400,4.93755029296875,6.075000286102295,7.660050392150879,-0.07095000147819519
1784194471166634500,4.947634521484375,6.124950408935547,7.6870503425598145,0.05205000191926956
1784194471176718600,4.957718505859375,6.091050148010254,7.689000129699707,-0.286950021982193
1784194471186802700,4.967802734375,5.998050212860107,7.677000522613525,-0.3060000240802765
1784194471196886800,4.97788671875,6.0960001945495605,7.6650004386901855,-0.06405000388622284
1784194471206970600,4.987970703125,6.127050399780273,7.675050258636475,0.034950003027915955
1784194471217054700,4.9980546875,6.028950214385986,7.681950569152832,-0.2530499994754791
1784194471227138800,5.008138916015625,6.015000343322754,7.6870503425598145,-0.22500000894069672
1784194471237223000,5.018222900390625,6.097950458526611,7.684050559997559,-0.022950001060962677
1784194471247306800,5.028306640625,6.082050323486328,7.6870503425598145,-0.016050001606345177
1784194471257391000,5.03839111328125,6.043050289154053,7.7059502601623535,-0.18900001049041748
1784194471267475000,5.048474853515625,6.022050380706787,7.702950477600098,-0.12405000627040863
1784194471277559000,5.05855908203125,6.055050373077393,7.710000514984131,-0.013950000517070293
1784194471287643100,5.06864306640625,6.0769500732421875,7.725000381469727,-0.05505000427365303
1784194471297727200,5.078727294921875,6.019050121307373,7.725000381469727,-0.14805001020431519
1784194471307811300,5.088811279296875,6.02400016784668,7.725000381469727,-0.0880500078201294
1784194471317895400,5.0988955078125,6.082050323486328,7.734000205993652,-0.004050000105053186
1784194471327979300,5.108979248046875,6.055050373077393,7.726950168609619,-0.06405000388622284
1784194471338063400,5.1190634765625,6.0360002517700195,7.729950428009033,-0.11700000613927841
1784194471348147500,5.1291474609375,6.060000419616699,7.726950168609619,-0.11400000751018524
1784194471358231600,5.1392314453125,6.060000419616699,7.710000514984131,0.019050000235438347
1784194471368315600,5.149315673828125,6.046050071716309,7.70805025100708,-0.11400000751018524
1784194471378399500,5.1593994140625,6.019050121307373,7.6870503425598145,-0.25095000863075256
1784194471388483600,5.169483642578125,5.992950439453125,7.957050323486328,-0.04305000230669975
1784194471398567700,5.179567626953125,6.3760504722595215,7.5450005531311035,-0.1860000044107437
1784194471408651500,5.189651611328125,5.734950065612793,7.669950485229492,0.22905001044273376
1784194471418735600,5.199735595703125,6.112950325012207,7.552050590515137,-0.4159500300884247
1784194471428819700,5.20981982421875,6.094050407409668,7.750950336456299,0.010950000956654549
1784194471438903800,5.21990380859375,6.058050155639648,7.6459503173828125,-0.1099500060081482
1784194471448987600,5.229987548828125,5.992950439453125,7.678950309753418,0
1784194471459071700,5.24007177734375,6.094050407409668,7.684050559997559,-0.2560500204563141
1784194471469155800,5.25015576171875,6.075000286102295,7.69605016708374,-0.12600000202655792
1784194471479240000,5.260239990234375,6.022050380706787,7.663050174713135,-0.0070500001311302185
1784194471489323800,5.27032373046875,6.0960001945495605,7.690950393676758,-0.16200000047683716
1784194471499408000,5.280407958984375,6.039000511169434,7.713000297546387,-0.1860000044107437
1784194471509492000,5.290491943359375,6.039000511169434,7.681950569152832,-0.11400000751018524
1784194471519576000,5.300576171875,6.070050239562988,7.70805025100708,-0.08100000023841858
1784194471529660200,5.31066015625,6.079050064086914,7.69605016708374,-0.17205001413822174
1784194471539744000,5.320743896484375,6.010050296783447,7.710000514984131,-0.1789500117301941
1784194471549828000,5.330828125,6.063000202178955,7.701000213623047,-0.10500000417232513
1784194471559912200,5.340912109375,6.0859503746032715,7.72005033493042,-0.12600000202655792
1784194471569996300,5.350996337890625,6.040950298309326,7.7149505615234375,-0.16905000805854797
1784194471580080400,5.361080322265625,6.043050289154053,7.717950344085693,-0.16695000231266022
1784194471590164200,5.371164306640625,6.079050064086914,7.70805025100708,-0.11205000430345535
1784194471600248300,5.381248291015625,6.072000503540039,7.710000514984131,-0.12600000202655792
1784194471610332400,5.39133251953125,6.031050205230713,7.7059502601623535,-0.16500000655651093
1784194471620416500,5.40141650390625,6.067050457000732,7.7149505615234375,-0.1380000114440918
1784194471630500600,5.41150048828125,6.079050064086914,7.710000514984131,-0.1099500060081482
1784194471640584400,5.42158447265625,6.060000419616699,7.698000431060791,-0.12600000202655792
1784194471650668500,5.43166845703125,6.058050155639648,7.698000431060791,-0.16200000047683716
1784194471660752600,5.441752685546875,6.082050323486328,7.69605016708374,-0.09300000220537186
1784194471670836700,5.451836669921875,6.0769500732421875,7.603050231933594,-0.10500000417232513
1784194471680920800,5.4619208984375,6.106050491333008,7.962000370025635,-0.2580000162124634
1784194471691004700,5.472004638671875,5.980950355529785,7.411050319671631,-0.09000000357627869
1784194471701088800,5.4820888671875,6.130050182342529,7.821000576019287,0.13095000386238098
1784194471711172900,5.4921728515625,6.055050373077393,7.672050476074219,-0.28905001282691956
1784194471721257000,5.502257080078125,5.938050270080566,7.738950252532959,-0.034950003027915955
1784194471731340800,5.5123408203125,6.1080002784729,7.291050434112549,-0.2959500253200531
1784194471741425000,5.5224248046875,6.264000415802002,8.074049949645996,0.3750000298023224
1784194471751509000,5.532509033203125,5.671950340270996,7.6459503173828125,-0.48600003123283386
1784194471761593000,5.542593017578125,6.598950386047363,7.035000324249268,-0.2530499994754791
1784194471771677200,5.55267724609375,5.731950283050537,8.206049919128418,0.675000011920929
1784194471781761000,5.562760986328125,5.785050392150879,8.428950309753418,-0.6769500374794006
1784194471791845000,5.57284521484375,6.130050182342529,7.420950412750244,0.05205000191926956
1784194471801929200,5.58292919921875,6.280050277709961,7.387050151824951,-0.11700000613927841
1784194471812013300,5.593013427734375,5.9569501876831055,7.710000514984131,-0.16905000805854797
1784194471822097400,5.603097412109375,6.157950401306152,7.864050388336182,-0.08295000344514847
1784194471832181200,5.61318115234375,6.072000503540039,7.633950233459473,-0.0880500078201294
1784194471842265300,5.623265380859375,5.986050128936768,7.725000381469727,-0.10500000417232513
1784194471852349400,5.633349365234375,6.028950214385986,7.717950344085693,-0.13095000386238098
1784194471862433500,5.64343359375,6.109950065612793,7.713000297546387,-0.14100000262260437
1784194471872517400,5.653517333984375,6.040950298309326,7.642950534820557,-0.08100000023841858
1784194471882601500,5.6636015625,6.028950214385986,7.73205041885376,-0.16200000047683716
1784194471892685600,5.673685546875,6.082050323486328,7.713000297546387,-0.1099500060081482
1784194471902769700,5.683769775390625,6.043050289154053,7.70805025100708,-0.11700000613927841
1784194471912853800,5.693853759765625,6.051000118255615,7.69605016708374,-0.13395000994205475
1784194471922937600,5.7039375,6.0360002517700195,7.690950393676758,-0.11700000613927841
1784194471933021700,5.714021728515625,6.075000286102295,7.702950477600098,-0.10200000554323196
1784194471943105800,5.724105712890625,6.039000511169434,7.69605016708374,-0.1189500093460083
1784194471953190000,5.73418994140625,6.055050373077393,7.698000431060791,-0.14805001020431519
1784194471963274000,5.74427392578125,6.043050289154053,7.702950477600098,-0.12405000627040863
1784194471973358000,5.754358154296875,6.055050373077393,7.690950393676758,-0.11400000751018524
1784194471983442000,5.76444189453125,6.060000419616699,7.69605016708374,-0.12600000202655792
1784194471993526000,5.774526123046875,6.039000511169434,7.702950477600098,-0.15000000596046448
1784194472003610000,5.784610107421875,6.052950382232666,7.702950477600098,-0.1099500060081482
1784194472013694200,5.794694091796875,6.0769500732421875,7.698000431060791,-0.12600000202655792
1784194472023778300,5.8047783203125,6.040950298309326,7.702950477600098,-0.12600000202655792
1784194472033862100,5.814862060546875,6.055050373077393,7.69605016708374,-0.13395000994205475
1784194472043946200,5.8249462890625,6.0769500732421875,7.701000213623047,-0.12600000202655792
1784194472054030300,5.8350302734375,6.055050373077393,7.7059502601623535,-0.12195000797510147
1784194472064114400,5.845114501953125,6.064950466156006,7.70805025100708,-0.14805001020431519
1784194472074198300,5.8551982421875,6.067050457000732,7.702950477600098,-0.11700000613927841
1784194472084282400,5.865282470703125,6.063000202178955,7.702950477600098,-0.12600000202655792
1784194472094366500,5.875366455078125,6.063000202178955,7.702950477600098,-0.11400000751018524
1784194472104450600,5.885450439453125,6.064950466156006,7.7059502601623535,-0.12600000202655792
1784194472114534700,5.89553466796875,6.058050155639648,7.7059502601623535,-0.1189500093460083
1784194472124618500,5.905618408203125,6.064950466156006,7.710000514984131,-0.10695000737905502
1784194472134702600,5.91570263671875,6.063000202178955,7.7059502601623535,-0.12405000627040863
1784194472144786700,5.92578662109375,6.048000335693359,7.69605016708374,-0.1099500060081482
1784194472154870800,5.935870849609375,6.052950382232666,7.698000431060791,-0.11205000430345535
1784194472164954600,5.94595458984375,6.052950382232666,7.701000213623047,-0.10695000737905502
1784194472175038700,5.956038818359375,6.070050239562988,7.710000514984131,-0.10695000737905502
1784194472185122800,5.966122802734375,6.040950298309326,7.701000213623047,-0.1099500060081482
1784194472195207000,5.97620703125,6.048000335693359,7.701000213623047,-0.09000000357627869
1784194472205291000,5.986291015625,6.067050457000732,7.713000297546387,-0.10695000737905502
1784194472215374800,5.996374755859375,6.043050289154053,7.702950477600098,-0.10200000554323196
1784194472225459000,6.006458984375,6.060000419616699,7.69605016708374,-0.10200000554323196
1784194472235543000,6.01654296875,6.063000202178955,7.7059502601623535,-0.09495000541210175
1784194472245627100,6.026627197265625,6.043050289154053,7.69605016708374,-0.09495000541210175
1784194472255711000,6.0367109375,6.043050289154053,7.689000129699707,-0.10695000737905502
1784194472265795000,6.046795166015625,6.048000335693359,7.7059502601623535,-0.11700000613927841
1784194472275879200,6.056879150390625,6.048000335693359,7.684050559997559,-0.11400000751018524
1784194472285963300,6.06696337890625,6.043050289154053,7.698000431060791,-0.09000000357627869
1784194472296047400,6.07704736328125,6.0360002517700195,7.698000431060791,-0.13095000386238098
1784194472306131500,6.08713134765625,6.039000511169434,7.701000213623047,-0.10695000737905502
1784194472316215300,6.09721533203125,6.063000202178955,7.702950477600098,-0.09795000404119492
1784194472326299400,6.10729931640625,6.043050289154053,7.702950477600098,-0.12600000202655792
1784194472336383500,6.117383544921875,6.070050239562988,7.6870503425598145,-0.13095000386238098
1784194472346467600,6.127467529296875,6.094050407409668,7.678950309753418,-0.18105000257492065
1784194472356551700,6.1375517578125,6.060000419616699,7.753950595855713,-0.10005000233650208
1784194472366635500,6.147635498046875,6.1459503173828125,7.878000259399414,-0.15300001204013824
1784194472376719600,6.1577197265625,5.374950408935547,8.200950622558594,0.09300000220537186
1784194472386803700,6.1678037109375,6.039000511169434,7.533000469207764,-0.6030000448226929
1784194472396887800,6.1778876953125,7.389000415802002,7.885050296783447,0.11700000613927841
1784194472406972000,6.187971923828125,5.055000305175781,8.479050636291504,0.27000001072883606
1784194472417056000,6.198055908203125,3.976950168609619,8.10300064086914,-0.9790500402450562
1784194472427139800,6.208139892578125,8.326950073242188,7.45395040512085,0.544950008392334
1784194472437224000,6.218223876953125,4.300050258636475,8.449950218200684,-0.7440000176429749
1784194472447308000,6.22830810546875,5.842050075531006,7.548000335693359,0.46905001997947693
1784194472457392000,6.23839208984375,6.216000080108643,8.055000305175781,-0.7459500432014465
1784194472467476000,6.24847607421875,5.875950336456299,7.713000297546387,0.7800000309944153
1784194472477560000,6.25856005859375,5.533050060272217,8.224950790405273,-1.519950032234192
1784194472487644200,6.26864404296875,5.674950122833252,8.038050651550293,1.0069500207901
1784194472497728300,6.278728271484375,6.321000099182129,7.786950588226318,-0.5329500436782837
1784194472507812400,6.288812255859375,5.143050193786621,8.275050163269043,-0.05700000375509262
1784194472517896400,6.298896484375,5.674950122833252,7.521000385284424,-0.016050001606345177
1784194472527980500,6.30898046875,5.940000057220459,8.070000648498535,-0.559950053691864
1784194472538064400,6.319064453125,5.823000431060791,7.879950523376465,0.2749500274658203
1784194472548148500,6.3291484375,5.581050395965576,7.963950157165527,-0.38700002431869507
1784194472558232600,6.339232666015625,5.818050384521484,7.873050212860107,-0.05505000427365303
1784194472568316700,6.349316650390625,5.713050365447998,7.900050163269043,-0.031050002202391624
1784194472578400800,6.35940087890625,5.703000068664551,7.975950241088867,-0.35895001888275146
1784194472588484600,6.369484619140625,5.5980000495910645,7.873050212860107,0.16905000805854797
1784194472598568700,6.379568603515625,5.782050132751465,7.987950325012207,-0.28395000100135803
1784194472608652800,6.38965283203125,5.674950122833252,8.0149507522583,-0.28005000948905945
1784194472618737000,6.39973681640625,5.686950206756592,7.900050163269043,-0.010950000956654549
1784194472628820700,6.40982080078125,5.698950290679932,7.945050239562988,-0.2770500183105469
1784194472638904800,6.41990478515625,5.658000469207764,7.939950466156006,-0.07905000448226929
1784194472648989000,6.429989013671875,5.586000442504883,7.930950164794922,-0.1770000010728836
1784194472659073000,6.440072998046875,5.662950038909912,7.924050331115723,-0.16500000655651093
1784194472669156900,6.450156982421875,5.611950397491455,7.914000511169434,-0.05205000191926956
1784194472679241000,6.460240966796875,5.881050109863281,8.035950660705566,-0.46605002880096436
1784194472689325000,6.470324951171875,5.079000473022461,7.641000270843506,0.41100001335144043
1784194472699409200,6.4804091796875,6.217950344085693,8.284950256347656,-0.9720000624656677
1784194472709493200,6.4904931640625,5.550000190734863,7.666950225830078,0.7489500641822815
1784194472719577300,6.500577392578125,5.409000396728516,8.019000053405762,-0.8590500354766846
1784194472729661200,6.5106611328125,5.599950313568115,7.8760504722595215,0.14295001327991486
1784194472739745300,6.520745361328125,6.1180500984191895,7.942950248718262,-0.22005000710487366
1784194472749829400,6.530829345703125,5.344050407409668,7.962000370025635,-0.16500000655651093
1784194472759913500,6.54091357421875,5.383050441741943,7.954950332641602,-0.016050001606345177
1784194472769997600,6.55099755859375,6.180000305175781,8.059950828552246,-0.35895001888275146
1784194472780081700,6.56108154296875,5.473950386047363,7.930950164794922,-0.07095000147819519
1784194472790165500,6.57116552734375,5.289000034332275,7.99500036239624,-0.18105000257492065
1784194472800249600,6.58124951171875,5.802000045776367,8.110050201416016,-0.1360500007867813
1784194472810333700,6.591333740234375,5.8090500831604,8.026050567626953,-0.17205001413822174
1784194472820417800,6.601417724609375,5.167050361633301,8.0910005569458,-0.15300001204013824
1784194472830502000,6.611501953125,5.683950424194336,8.0910005569458,-0.1099500060081482
1784194472840585700,6.621585693359375,5.758050441741943,8.158050537109375,-0.34905001521110535
1784194472850669800,6.631669921875,5.28000020980835,8.138999938964844,0.07395000010728836
1784194472860754000,6.64175390625,5.344050407409668,8.212950706481934,-0.4140000343322754
1784194472870838000,6.651838134765625,5.599950313568115,8.208000183105469,0.08295000344514847
1784194472880921900,6.661921875,5.437950134277344,8.182050704956055,-0.4230000078678131
1784194472891006000,6.672005859375,5.196000099182129,8.230050086975098,-0.022950001060962677
1784194472901090000,6.682090087890625,5.548050403594971,8.247000694274902,-0.32295000553131104
1784194472911174100,6.692174072265625,5.461950302124023,8.315999984741211,-0.1980000138282776
1784194472921258000,6.702258056640625,5.119050025939941,8.272950172424316,-0.11205000430345535
1784194472931342000,6.712342041015625,5.323050022125244,8.35004997253418,-0.31800001859664917
1784194472941426200,6.72242626953125,5.349000453948975,8.284950256347656,-0.1380000114440918
1784194472951510300,6.73251025390625,5.233950138092041,8.347050666809082,-0.41805002093315125
1784194472961594400,6.742594482421875,5.131050109863281,8.368950843811035,-0.06195000186562538
1784194472971678500,6.752678466796875,5.299050331115723,8.425950050354004,-0.4300500154495239
1784194472981762300,6.76276220703125,5.172000408172607,8.413949966430664,-0.14295001327991486
1784194472991846400,6.772846435546875,5.008950233459473,8.42400074005127,-0.39900001883506775
1784194473001930500,6.782930419921875,5.134050369262695,8.447999954223633,-0.1860000044107437
1784194473012014600,6.7930146484375,5.155050277709961,8.452950477600098,-0.32505002617836
1784194473022098700,6.8030986328125,4.966050148010254,8.500950813293457,-0.33900001645088196
1784194473032182800,6.813182861328125,5.038050174713135,8.508000373840332,-0.32805001735687256
1784194473042266600,6.8232666015625,5.026050090789795,8.52405071258545,-0.2440500110387802
1784194473052350700,6.833350830078125,4.944000244140625,8.544000625610352,-0.4140000343322754
1784194473062434800,6.843434814453125,4.875,8.557950019836426,-0.31800001859664917
1784194473072519000,6.853518798828125,4.923000335693359,8.569950103759766,-0.32295000553131104
1784194473082603000,6.86360302734375,4.863000392913818,8.625,-0.4420500099658966
1784194473092687000,6.87368701171875,4.798050403594971,8.608050346374512,-0.28395000100135803
1784194473102771000,6.88377099609375,4.795950412750244,8.66100025177002,-0.4830000102519989
1784194473112855000,6.89385498046875,4.719000339508057,8.677950859069824,-0.33705002069473267
1784194473122939100,6.903939208984375,4.651950359344482,8.754000663757324,-0.3439500033855438
1784194473133023200,6.914023193359375,4.618950366973877,8.800050735473633,-0.5329500436782837
1784194473143107300,6.924107421875,4.564050197601318,8.842950820922852,-0.35895001888275146
1784194473153191400,6.93419140625,4.509000301361084,8.862000465393066,-0.4620000123977661
1784194473163275500,6.944275634765625,4.509000301361084,8.908050537109375,-0.43995001912117004
1784194473173359400,6.954359375,4.477950096130371,8.908050537109375,-0.39705002307891846
1784194473183443500,6.964443359375,4.411050319671631,8.908050537109375,-0.5430000424385071
1784194473193527600,6.974527587890625,4.387050151824951,8.94105052947998,-0.3469500243663788
1784194473203611600,6.984611572265625,4.401000022888184,8.955000877380371,-0.48795002698898315
1784194473213695700,6.99469580078125,4.341000080108643,8.994000434875488,-0.4740000367164612
1784194473223779600,7.004779541015625,4.293000221252441,8.982000350952148,-0.3679500222206116
1784194473233863700,7.01486376953125,4.309950351715088,8.974950790405273,-0.4740000367164612
1784194473243947800,7.02494775390625,4.291050434112549,8.97705078125,-0.3060000240802765
1784194473254032000,7.035031982421875,4.255050182342529,8.991000175476074,-0.46605002880096436
1784194473264116000,7.045115966796875,4.279050350189209,9.001049995422363,-0.34200000762939453
1784194473274199800,7.05519970703125,4.24500036239624,8.974950790405273,-0.3829500079154968
1784194473284284000,7.065283935546875,4.2019500732421875,8.991000175476074,-0.38700002431869507
1784194473294368000,7.075367919921875,4.188000202178955,8.979000091552734,-0.3349500298500061
1784194473304452000,7.0854521484375,4.228950023651123,8.986950874328613,-0.38700002431869507
1784194473314536200,7.0955361328125,4.164000034332275,9.006000518798828,-0.25995001196861267
1784194473324620300,7.105620361328125,4.1449503898620605,9.010950088500977,-0.4210500121116638
1784194473334704000,7.1157041015625,4.132950305938721,8.974950790405273,-0.26295000314712524
1784194473344788200,7.125788330078125,4.168950080871582,8.97705078125,-0.3730500042438507
1784194473354872300,7.135872314453125,4.126049995422363,8.979000091552734,-0.24795001745224
1784194473364956400,7.145956298828125,4.128000259399414,8.97705078125,-0.37800002098083496
1784194473375040500,7.15604052734375,4.1449503898620605,8.970000267028809,-0.2989500164985657
1784194473385124600,7.16612451171875,4.087049961090088,8.94105052947998,-0.30105000734329224
1784194473395208700,7.176208740234375,4.114050388336182,8.982000350952148,-0.3540000021457672
1784194473405292500,7.18629248046875,4.126049995422363,8.982000350952148,-0.26295000314712524
1784194473415376600,7.196376708984375,4.047000408172607,8.958000183105469,-0.35895001888275146
1784194473425460700,7.206460693359375,4.042050361633301,8.958000183105469,-0.24105000495910645
1784194473435544800,7.216544921875,4.116000175476074,8.95995044708252,-0.4350000321865082
1784194473445629000,7.22662890625,4.063050270080566,8.982000350952148,-0.22905001044273376
1784194473455713000,7.236713134765625,4.035000324249268,8.958000183105469,-0.3630000054836273
1784194473465797000,7.246797119140625,4.078050136566162,8.986950874328613,-0.33000001311302185
1784194473475881200,7.256881103515625,4.051050186157227,8.955000877380371,-0.23400001227855682
1784194473485965000,7.266965087890625,4.080000400543213,9.010950088500977,-0.5070000290870667
1784194473496049200,7.277049072265625,4.0920000076293945,9.001049995422363,-0.05505000427365303
1784194473506133200,7.28713330078125,4.096950054168701,9.013050079345703,-0.6270000338554382
1784194473516217300,7.29721728515625,3.9870002269744873,9.015000343322754,-0.10200000554323196
1784194473526301400,7.307301513671875,4.128000259399414,9.034049987792969,-0.5359500050544739
1784194473536385500,7.317385498046875,4.180950164794922,9.085050582885742,-0.33705002069473267
1784194473546469400,7.327469482421875,4.114050388336182,9.031949996948242,-0.2749500274658203
1784194473556553500,7.337553466796875,4.152000427246094,9.091950416564941,-0.7350000143051147
1784194473566637600,7.347637451171875,4.111050128936768,9.007950782775879,-0.10695000737905502
1784194473576721700,7.3577216796875,4.2330002784729,9.055950164794922,-0.7939500212669373
1784194473586805800,7.3678056640625,4.1419501304626465,9.07800006866455,-0.10005000233650208
1784194473596889900,7.377889892578125,4.168950080871582,9.039000511169434,-0.7230000495910645
1784194473606974000,7.387973876953125,4.213950157165527,9.063000679016113,-0.3750000298023224
1784194473617057800,7.398057861328125,4.138050079345703,9.019950866699219,-0.4230000078678131
1784194473627142000,7.408141845703125,4.183050155639648,9.058050155639648,-0.6840000152587891
1784194473637226000,7.41822607421875,4.120950222015381,9.007950782775879,-0.28005000948905945
1784194473647310000,7.42831005859375,4.189949989318848,9.031949996948242,-0.7350000143051147
1784194473657394200,7.438394287109375,4.080000400543213,9.007950782775879,-0.2580000162124634
1784194473667478300,7.448478271484375,4.249950408935547,9.001049995422363,-0.6649500131607056
1784194473677562400,7.458562255859375,4.066050052642822,8.998950004577637,-0.38700002431869507
1784194473687646200,7.468646240234375,3.988950252532959,9.007950782775879,-0.4020000100135803
1784194473697730300,7.478730224609375,4.195050239562988,8.995950698852539,-0.5209500193595886
1784194473707814400,7.488814453125,4.207050323486328,9.006000518798828,-0.28395000100135803
1784194473717898500,7.4988984375,4.153950214385986,8.998950004577637,-0.5430000424385071
1784194473727982600,7.508982666015625,3.9679501056671143,8.979000091552734,-0.18105000257492065
1784194473738066700,7.519066650390625,4.177950382232666,9.007950782775879,-0.43800002336502075
1784194473748150800,7.52915087890625,4.180950164794922,9.006000518798828,-0.16905000805854797
1784194473758234600,7.539234619140625,4.084949970245361,8.994000434875488,-0.3469500243663788
1784194473768318700,7.549318603515625,4.2210001945495605,9.003000259399414,-0.16905000805854797
1784194473778402800,7.55940283203125,4.056000232696533,9.001049995422363,-0.14100000262260437
1784194473788487000,7.56948681640625,4.135050296783447,9.003000259399414,-0.3160500228404999
1784194473798571000,7.579571044921875,4.116000175476074,8.95305061340332,-0.10695000737905502
1784194473808655000,7.589655029296875,4.1449503898620605,8.967000007629395,-0.004050000105053186
1784194473818739200,7.5997392578125,4.183050155639648,8.982000350952148,-0.23895001411437988
1784194473828823000,7.609822998046875,4.06095027923584,9.058050155639648,-0.08100000023841858
1784194473838907100,7.6199072265625,4.123050212860107,8.934000015258789,0.0499500036239624
1784194473848991200,7.6299912109375,4.177950382232666,8.943000793457031,-0.07905000448226929
1784194473859075300,7.640075439453125,4.213950157165527,8.946000099182129,0.028050001710653305
1784194473869159400,7.650159423828125,3.991950273513794,8.94795036315918,-0.1380000114440918
1784194473879243500,7.660243408203125,4.183050155639648,8.967000007629395,0.1789500117301941
1784194473889327600,7.67032763671875,4.3630499839782715,8.902950286865234,-0.022950001060962677
1784194473899411700,7.68041162109375,4.273950099945068,9.001049995422363,-0.022950001060962677
1784194473909495600,7.69049560546875,3.9750001430511475,8.884050369262695,0.2440500110387802
1784194473919579600,7.70057958984375,4.237950325012207,8.970000267028809,-0.18405000865459442
1784194473929663700,7.710663818359375,4.308000087738037,8.9170503616333,0.34200000762939453
1784194473939747800,7.720747802734375,4.23105001449585,9.043950080871582,-0.33000001311302185
1784194473949832000,7.73083203125,4.305000305175781,9.030000686645508,0.4039500057697296
1784194473959916000,7.740916015625,4.320000171661377,8.9239501953125,-0.10500000417232513
1784194473970000100,7.751000244140625,4.249950408935547,8.946000099182129,0.046950001269578934
1784194473980084200,7.761084228515625,4.255050182342529,8.95995044708252,0.33900001645088196
1784194473990168000,7.77116796875,4.489950180053711,9.003000259399414,-0.06195000186562538
1784194474000252200,7.781252197265625,4.449000358581543,8.994000434875488,0.21705001592636108
1784194474010336300,7.791336181640625,4.240950107574463,8.9170503616333,0.028050001710653305
1784194474020420400,7.80142041015625,4.31505012512207,8.884050369262695,0.1860000044107437
1784194474030504400,7.81150439453125,4.53000020980835,8.955000877380371,0.22500000894069672
1784194474040588500,7.821588623046875,4.513050079345703,8.955000877380371,0.0019500000635161996
1784194474050672600,7.831672607421875,4.40595006942749,8.887950897216797,0.16200000047683716
1784194474060756700,7.8417568359375,4.342950344085693,8.884050369262695,0.1380000114440918
1784194474070840800,7.8518408203125,4.510950088500977,8.869050025939941,0.10500000417232513
1784194474080924700,7.861924560546875,4.408050060272217,8.886000633239746,0.22500000894069672
1784194474091008800,7.8720087890625,4.462950229644775,8.850000381469727,0.10695000737905502
1784194474101092900,7.8820927734375,4.375050067901611,8.814000129699707,0.20805001258850098
1784194474111177000,7.892177001953125,4.402950286865234,8.782950401306152,0.2370000183582306
1784194474121261000,7.902260986328125,4.44195032119751,8.842950820922852,0.019050000235438347
1784194474131345200,7.91234521484375,4.45395040512085,8.704050064086914,0.27000001072883606
1784194474141429200,7.92242919921875,4.402950286865234,8.656050682067871,-0.04005000367760658
1784194474151513300,7.932513427734375,4.237950325012207,8.67300033569336,0.32295000553131104
1784194474161597200,7.94259716796875,4.569000244140625,8.67300033569336,0.0070500001311302185
1784194474171681300,7.952681396484375,4.39394998550415,8.66295051574707,0.33195000886917114
1784194474181765400,7.962765380859375,4.458000183105469,8.581950187683105,0.09795000404119492
1784194474191849500,7.972849365234375,4.485000133514404,8.584050178527832,0.04305000230669975
1784194474201933600,7.98293359375,4.449000358581543,8.623050689697266,0.2050500065088272
1784194474212017700,7.993017578125,4.549050331115723,8.577000617980957,-0.016050001606345177
1784194474222101800,8.003101806640625,4.588050365447998,8.63895034790039,0.10500000417232513
1784194474232185900,8.013185791015625,4.627950191497803,8.614950180053711,0.10005000233650208
1784194474242269700,8.023269775390625,4.651950359344482,8.653950691223145,-0.18900001049041748
1784194474252353800,8.033353759765625,4.630950450897217,8.623050689697266,0.15300001204013824
1784194474262438000,8.04343798828125,4.686000347137451,8.613000869750977,-0.037950001657009125
1784194474272522000,8.05352197265625,4.864950180053711,8.692049980163574,0.11400000751018524
1784194474282606000,8.063606201171876,4.786050319671631,8.608050346374512,-0.016050001606345177
1784194474292690200,8.073690185546875,4.657050132751465,8.629950523376465,-0.3349500298500061
1784194474302774300,8.083774169921876,4.855950355529785,8.568000793457031,0.3130500018596649
1784194474312858400,8.0938583984375,4.882050037384033,8.605950355529785,-0.30105000734329224
1784194474322942200,8.103942138671876,4.839000225067139,8.64900016784668,-0.05895000323653221
1784194474333026300,8.1140263671875,4.89900016784668,8.587050437927246,0.021000001579523087
1784194474343110400,8.1241103515625,4.813050270080566,8.568000793457031,-0.16200000047683716
1784194474353194500,8.134194580078125,4.876950263977051,8.599050521850586,0.0019500000635161996
1784194474363278600,8.144278564453124,4.894050121307373,8.62695026397705,-0.20100000500679016
1784194474373362700,8.15436279296875,4.936950206756592,8.536050796508789,0.0499500036239624
1784194474383446800,8.16444677734375,4.903950214385986,8.560050010681152,-0.27000001072883606
1784194474393531000,8.17453076171875,4.903950214385986,8.533950805664062,-0.10695000737905502
1784194474403615000,8.184614990234374,5.092950344085693,8.599050521850586,-0.1980000138282776
1784194474413698800,8.19469873046875,4.837050437927246,8.575050354003906,-0.20805001258850098
1784194474423783000,8.204782958984374,5.092950344085693,8.605950355529785,-0.18105000257492065
1784194474433867000,8.214866943359375,5.014050006866455,8.560050010681152,-0.18900001049041748
1784194474443951000,8.224951171875,4.920000076293945,8.577000617980957,-0.2989500164985657
1784194474454035200,8.23503515625,5.158050060272217,8.577000617980957,-0.26295000314712524
1784194474464119300,8.245119384765625,4.987950325012207,8.548050880432129,-0.3559500277042389
1784194474474203400,8.255203369140625,5.047050476074219,8.551050186157227,-0.20100000500679016
1784194474484287500,8.26528759765625,5.086050033569336,8.560050010681152,-0.3730500042438507
1784194474494371600,8.27537158203125,4.912950038909912,8.575050354003906,-0.25995001196861267
1784194474504455700,8.28545556640625,4.935000419616699,8.509950637817383,-0.3540000021457672
1784194474514539500,8.29553955078125,4.89900016784668,8.428950309753418,-0.2460000067949295
1784194474524623600,8.30562353515625,4.924950122833252,8.419050216674805,-0.2560500204563141
1784194474534707700,8.315707763671876,5.031000137329102,8.473950386047363,-0.15300001204013824
1784194474544791800,8.325791748046875,4.935000419616699,8.404950141906738,-0.23400001227855682
1784194474554876000,8.3358759765625,4.674000263214111,8.359050750732422,-0.20805001258850098
1784194474564960000,8.3459599609375,4.975950241088867,8.38800048828125,-0.21300001442432404
1784194474575044000,8.356044189453126,5.26800012588501,8.407050132751465,-0.08295000344514847
1784194474585128200,8.366128173828125,4.939950466156006,8.377950668334961,-0.20295001566410065
1784194474595212300,8.37621240234375,4.935000419616699,8.3899507522583,-0.09000000357627869
1784194474605296400,8.38629638671875,4.9519500732421875,8.398050308227539,-0.09495000541210175
1784194474615380200,8.396380126953124,5.092950344085693,8.485950469970703,-0.2050500065088272
1784194474625464300,8.40646435546875,5.176950454711914,8.416950225830078,0.08295000344514847
1784194474635548400,8.41654833984375,4.873050212860107,8.3899507522583,-0.39705002307891846
1784194474645632500,8.426632568359375,4.990050315856934,8.43600082397461,0.013950000517070293
1784194474655716600,8.436716552734374,5.176950454711914,8.434050559997559,-0.22200001776218414
1784194474665800700,8.44680078125,4.954050064086914,8.37405014038086,0.032999999821186066
1784194474675884800,8.456884765625,4.897050380706787,8.42400074005127,-0.2959500253200531
1784194474685969000,8.466968994140625,5.074050426483154,8.416950225830078,-0.09300000220537186
1784194474696053000,8.477052978515625,5.239050388336182,8.40000057220459,-0.0499500036239624
1784194474706137000,8.48713720703125,4.8919501304626465,8.404950141906738,-0.34200000762939453
1784194474716221000,8.497220947265625,4.980000019073486,8.3860502243042,-0.0070500001311302185
1784194474726305000,8.507304931640626,5.160000324249268,8.377950668334961,-0.28395000100135803
1784194474736389000,8.51738916015625,5.068950176239014,8.42400074005127,-0.046950001269578934
1784194474746473200,8.52747314453125,5.056950092315674,8.476950645446777,-0.1789500117301941
1784194474756557300,8.537557373046875,5.0809502601623535,8.413949966430664,-0.2939999997615814
1784194474766641400,8.547641357421876,5.07105016708374,8.407050132751465,-0.09000000357627869
1784194474776725500,8.5577255859375,5.068950176239014,8.407050132751465,-0.3079500198364258
1784194474786809600,8.5678095703125,5.124000072479248,8.380949974060059,-0.14595000445842743
1784194474796893700,8.577893798828125,5.148000240325928,8.392950057983398,-0.3540000021457672
1784194474806977800,8.587977783203126,5.232000350952148,8.42400074005127,-0.2989500164985657
1784194474817062000,8.598061767578125,5.131050109863281,8.43600082397461,-0.16905000805854797
1784194474827145700,8.608145751953124,4.959000110626221,8.484000205993652,-0.28395000100135803
1784194474837230000,8.61822998046875,5.079000473022461,8.419050216674805,-0.35100001096725464
1784194474847314000,8.62831396484375,5.079000473022461,8.338050842285156,-0.2939999997615814
1784194474857398000,8.63839794921875,5.4210004806518555,8.447999954223633,-0.07905000448226929
1784194474867482000,8.648482177734374,5.1409502029418945,8.51294994354248,-0.6000000238418579
1784194474877566200,8.658566162109375,4.827000141143799,8.51294994354248,-0.12405000627040863
1784194474887650300,8.668650390625,5.116950035095215,8.331000328063965,-0.23895001411437988
1784194474897734400,8.678734375,5.317950248718262,8.434050559997559,-0.45705002546310425
1784194474907818500,8.688818603515625,5.239050388336182,8.52405071258545,-0.3349500298500061
1784194474917902600,8.698902587890625,5.212950229644775,8.647050857543945,-0.17400000989437103
1784194474927986700,8.708986572265625,4.999950408935547,8.447999954223633,-0.27000001072883606
1784194474938070500,8.719070556640625,5.14995002746582,8.419050216674805,-0.46605002880096436
1784194474948154600,8.729154541015625,5.277000427246094,8.434050559997559,-0.025950001552700996
1784194474958238700,8.73923876953125,5.128950119018555,8.620050430297852,-0.5910000205039978
1784194474968322800,8.74932275390625,4.980000019073486,8.491050720214844,0.10005000233650208
1784194474978407000,8.759406982421876,5.101950168609619,8.268000602722168,-0.45900002121925354
1784194474988491000,8.769490966796875,5.0209503173828125,8.445000648498535,-0.032999999821186066
1784194474998575000,8.7795751953125,5.116950035095215,8.484000205993652,-0.5410500168800354
1784194475008659200,8.7896591796875,5.2099504470825195,8.440950393676758,-0.004050000105053186
1784194475018743300,8.799743408203126,4.849050045013428,8.290050506591797,-0.046950001269578934
1784194475028827400,8.809827392578125,4.858050346374512,8.42400074005127,-0.6840000152587891
1784194475038911500,8.819911376953126,5.215050220489502,8.407050132751465,0.226950004696846
1784194475048995600,8.82999560546875,5.067000389099121,8.3899507522583,-0.5329500436782837
1784194475059079700,8.84007958984375,4.932000160217285,8.34000015258789,0.3439500033855438
1784194475069163500,8.85016357421875,4.852950096130371,8.332950592041016,-0.547950029373169
1784194475079247600,8.86024755859375,5.332050323486328,8.42400074005127,-0.013950000517070293
1784194475089331700,8.870331787109375,4.827000141143799,8.368950843811035,0.17205001413822174
1784194475099415800,8.880415771484374,5.047050476074219,8.503050804138184,-0.742050051689148
1784194475109500000,8.8905,5.296050071716309,8.338050842285156,0.4210500121116638
1784194475119584000,8.900583984375,5.032950401306152,8.455050468444824,-0.5790000557899475
1784194475129668000,8.910668212890625,4.975950241088867,8.447999954223633,0.5329500436782837
1784194475139752200,8.920752197265625,5.074050426483154,8.416950225830078,-0.505050003528595
1784194475149836300,8.930836181640625,5.188950061798096,8.365950584411621,0.019050000235438347
1784194475159920000,8.940920166015625,4.968000411987305,8.319000244140625,-0.031050002202391624
1784194475170004200,8.951004150390625,5.191050052642822,8.445000648498535,-0.18105000257492065
1784194475180088300,8.96108837890625,5.074050426483154,8.35004997253418,0.27000001072883606
1784194475190172400,8.97117236328125,4.834050178527832,8.343000411987305,-0.4069500267505646
1784194475200256500,8.981256591796875,5.08305025100708,8.275050163269043,0.17205001413822174
1784194475210340600,8.991340576171876,5.19795036315918,8.315999984741211,-0.18900001049041748
1784194475220424700,9.0014248046875,5.092950344085693,8.404950141906738,0.07095000147819519
1784194475230508800,9.0115087890625,4.717050075531006,8.338050842285156,-0.05700000375509262
1784194475240592600,9.021592529296875,5.098050117492676,8.365950584411621,-0.034950003027915955
1784194475250676700,9.0316767578125,5.019000053405762,8.236949920654297,0.07605000585317612
1784194475260760800,9.0417607421875,4.89900016784668,8.266050338745117,-0.17400000989437103
1784194475270845000,9.051844970703126,5.18595027923584,8.35200023651123,0.0690000057220459
1784194475280929000,9.061928955078125,5.260050296783447,8.425950050354004,-0.23895001411437988
1784194475291013400,9.072013427734374,4.944000244140625,8.36205005645752,0.14595000445842743
1784194475301097200,9.08209716796875,5.031000137329102,8.268000602722168,-0.05205000191926956
1784194475311181300,9.092181396484374,5.217000484466553,8.355000495910645,-0.20100000500679016
1784194475321265400,9.102265380859375,5.044950008392334,8.469000816345215,-0.1290000081062317
1784194475331349500,9.112349609375,5.131050109863281,8.476950645446777,-0.1290000081062317
1784194475341433600,9.12243359375,5.244000434875488,8.332950592041016,-0.037950001657009125
1784194475351517700,9.132517578125,4.954050064086914,8.295000076293945,-0.21300001442432404
1784194475361601800,9.142601806640625,4.7719502449035645,8.332950592041016,-0.24105000495910645
1784194475371686000,9.152685791015625,5.373000144958496,8.410050392150879,-0.11205000430345535
1784194475381769700,9.162769775390625,5.227050304412842,8.437950134277344,-0.15495000779628754
1784194475391854000,9.17285400390625,4.569000244140625,8.36400032043457,-0.2050500065088272
1784194475401938000,9.18293798828125,5.169000148773193,8.248950004577637,-0.33900001645088196
1784194475412022000,9.19302197265625,5.253000259399414,8.248950004577637,-0.18900001049041748
1784194475422106000,9.203106201171876,4.618950366973877,8.422050476074219,-0.13095000386238098
1784194475432190200,9.213190185546875,4.948950290679932,8.398050308227539,-0.4710000157356262
1784194475442274300,9.2232744140625,5.457000255584717,8.256000518798828,-0.14805001020431519
1784194475452358400,9.2333583984375,4.936950206756592,8.271000862121582,-0.39195001125335693
1784194475462442500,9.2434423828125,4.753050327301025,8.410050392150879,-0.12405000627040863
1784194475472526600,9.253526611328125,5.317950248718262,8.40000057220459,-0.5670000314712524
1784194475482610700,9.263610595703126,5.0809502601623535,8.404950141906738,-0.16905000805854797
1784194475492694800,9.27369482421875,5.028000354766846,8.275050163269043,-0.05895000323653221
1784194475502779000,9.28377880859375,5.28000020980835,8.3860502243042,2.239950180053711
1784194475512863000,9.293863037109375,4.9830002784729,8.740050315856934,-1.981950044631958
1784194475522947000,9.303947021484374,4.693050384521484,8.41200065612793,-5.0560503005981445
1784194475533031200,9.31403125,5.0809502601623535,9.007950782775879,0.9930000305175781
1784194475543115300,9.324115234375,6.312000274658203,7.963950157165527,3.892050266265869
1784194475553199400,9.334199462890625,5.220000267028809,8.508000373840332,-0.4830000102519989
1784194475563283500,9.344283447265624,4.444050312042236,8.568000793457031,-2.7960002422332764
1784194475573367600,9.354367431640625,4.815000057220459,8.496000289916992,-0.18105000257492065
1784194475583451600,9.36445166015625,6.0960001945495605,8.635050773620605,1.162950038909912
1784194475593535500,9.374535400390625,5.248950481414795,8.533950805664062,0.48600003123283386
1784194475603619600,9.38461962890625,4.669050216674805,8.460000038146973,-1.7899501323699951
1784194475613703700,9.39470361328125,4.915950298309326,8.479050636291504,-0.4020000100135803
1784194475623787800,9.404787841796875,5.7370500564575195,8.428950309753418,0.4020000100135803
1784194475633872000,9.414871826171876,5.397000312805176,8.62695026397705,0.22500000894069672
1784194475643956000,9.4249560546875,4.767000198364258,8.416950225830078,-0.547950029373169
1784194475654040000,9.4350400390625,4.936950206756592,8.42400074005127,-0.32805001735687256
1784194475664124200,9.445124267578125,5.670000076293945,8.40195083618164,0.1770000010728836
1784194475674208300,9.455208251953126,5.323050022125244,8.533950805664062,0.016050001606345177
1784194475684292000,9.4652919921875,4.834050178527832,8.500950813293457,-0.18105000257492065
1784194475694376200,9.475376220703126,5.229000091552734,8.404950141906738,-0.04005000367760658
1784194475704460300,9.485460205078125,5.553000450134277,8.36205005645752,0.0070500001311302185
1784194475714544400,9.49554443359375,5.104950428009033,8.404950141906738,-0.6960000395774841
1784194475724628500,9.50562841796875,5.299050331115723,8.614950180053711,-0.09795000404119492
1784194475734712600,9.515712646484374,5.548050403594971,8.521950721740723,0.16005000472068787
1784194475744796700,9.525796630859375,5.18595027923584,8.42400074005127,0.21705001592636108
1784194475754880800,9.535880859375,4.897050380706787,8.260950088500977,0.0499500036239624
1784194475764964600,9.545964599609375,5.227050304412842,8.392950057983398,-0.9570000171661377
1784194475775048700,9.556048583984374,5.445000171661377,8.343000411987305,-0.0019500000635161996
1784194475785132800,9.5661328125,4.915950298309326,8.311050415039062,0.46905001997947693
1784194475795217000,9.576216796875,5.181000232696533,8.235000610351562,0.15495000779628754
1784194475805301000,9.586301025390625,4.879950046539307,8.138999938964844,-0.45000001788139343
1784194475815385000,9.596385009765624,4.815000057220459,8.220000267028809,0.05205000191926956
1784194475825469200,9.60646923828125,5.373000144958496,8.311050415039062,0.5879999995231628
1784194475835553300,9.61655322265625,5.245950222015381,8.314050674438477,-1.0720500946044922
1784194475845637400,9.626637451171876,4.5420002937316895,8.134050369262695,0.42795002460479736
1784194475855721500,9.636721435546875,5.112000465393066,8.12505054473877,0.1189500093460083
1784194475865805600,9.6468056640625,5.184000015258789,8.10105037689209,0.4039500057697296
1784194475875889700,9.6568896484375,5.055000305175781,8.392950057983398,0.031050002202391624
1784194475885973800,9.666973876953126,5.134050369262695,8.224950790405273,-0.39195001125335693
1784194475896057900,9.677057861328125,5.152950286865234,8.227950096130371,0.40905001759529114
1784194475906141700,9.6871416015625,4.669050216674805,8.268000602722168,-0.08595000207424164
1784194475916225800,9.697225830078125,5.212950229644775,8.208000183105469,-0.3660000264644623
1784194475926310000,9.707309814453126,5.26800012588501,8.343000411987305,0.16500000655651093
1784194475936394000,9.71739404296875,4.975950241088867,8.146050453186035,-0.18105000257492065
1784194475946478000,9.72747802734375,5.233950138092041,8.416950225830078,0.2939999997615814
1784194475956562200,9.737562255859375,5.1739501953125,8.34000015258789,-0.034950003027915955
1784194475966646300,9.747646240234374,5.245950222015381,8.359050750732422,0.07395000010728836
1784194475976730400,9.75773046875,4.903950214385986,8.3899507522583,-0.3949500322341919
1784194475986814500,9.767814453125,5.043000221252441,8.320950508117676,-0.6670500040054321
1784194475996898600,9.777898681640625,5.052000045776367,8.307000160217285,0.08100000023841858
1784194476006982700,9.787982666015624,5.26800012588501,8.34000015258789,0.3439500033855438
1784194476017066800,9.798066650390625,5.26800012588501,8.26395034790039,-0.4300500154495239
1784194476027150800,9.80815087890625,4.803000450134277,8.323050498962402,-0.48600003123283386
1784194476037235000,9.81823486328125,4.8919501304626465,8.26395034790039,-0.26295000314712524
1784194476047318800,9.82831884765625,5.469000339508057,8.338050842285156,-0.0499500036239624
1784194476057403000,9.83840283203125,5.239050388336182,8.236949920654297,-0.29205000400543213
1784194476067487000,9.848487060546875,4.966050148010254,8.422050476074219,-0.37095001339912415
1784194476077571000,9.858571044921876,5.272050380706787,8.182050704956055,-0.1099500060081482
1784194476087655200,9.8686552734375,5.152950286865234,8.319000244140625,-0.09495000541210175
1784194476097739300,9.8787392578125,5.086050033569336,8.3899507522583,-0.2770500183105469
1784194476107823400,9.8888232421875,5.18595027923584,8.311050415039062,-0.4350000321865082
1784194476117907500,9.898907470703126,5.284050464630127,8.282999992370605,-0.286950021982193
1784194476127991600,9.908991455078125,5.100000381469727,8.26395034790039,0.07395000010728836
1784194476138075600,9.91907568359375,4.894050121307373,8.326050758361816,-0.361050009727478
1784194476148159700,9.92915966796875,4.8919501304626465,8.242050170898438,-0.009000000543892384
1784194476158243600,9.93924365234375,5.134050369262695,8.08905029296875,-0.034950003027915955
1784194476168327700,9.94932763671875,5.301000118255615,8.203949928283691,-0.4350000321865082
1784194476178411800,9.959411865234374,4.849050045013428,8.356950759887695,-0.16005000472068787
1784194476188496000,9.969495849609375,5.28000020980835,8.398050308227539,-0.11700000613927841
1784194476198579700,9.979579833984374,5.233950138092041,8.282999992370605,0.28005000948905945
1784194476208663800,9.989663818359375,5.191050052642822,8.11500072479248,-0.11700000613927841
1784194476218748200,9.999748046875,5.265000343322754,8.37405014038086,-0.07605000585317612
1784194476228832000,10.00983203125,5.386950492858887,8.569950103759766,-0.33000001311302185
1784194476238916000,10.019916015625,5.389950275421143,8.343000411987305,0.7540500164031982
1784194476249000200,10.030000244140625,5.272050380706787,8.191950798034668,0.025950001552700996
1784194476259084300,10.040084228515624,4.9710001945495605,8.473950386047363,-1.651050090789795
1784194476269168400,10.05016845703125,5.470950126647949,8.488950729370117,-1.672950029373169
1784194476279252500,10.06025244140625,5.509050369262695,8.641950607299805,0.7900500297546387
1784194476289336600,10.070336669921875,5.500050067901611,8.116950035095215,1.7040001153945923
1784194476299420700,10.080420654296875,4.99500036239624,8.41200065612793,-0.1360500007867813
1784194476309504800,10.0905048828125,5.323050022125244,8.365950584411621,-1.7899501323699951
1784194476319588900,10.1005888671875,5.296050071716309,8.485950469970703,-0.2939999997615814
1784194476329673000,10.1106728515625,5.208000183105469,8.08395004272461,1.4050500392913818
1784194476339756800,10.1207568359375,5.502000331878662,8.520000457763672,0.031050002202391624
1784194476349841000,10.1308408203125,5.629050254821777,8.256000518798828,-0.8230500221252441
1784194476359925000,10.140925048828125,4.7220001220703125,8.284950256347656,-0.4159500300884247
1784194476370009000,10.151009033203126,5.538000106811523,8.461950302124023,0.43995001912117004
1784194476380093200,10.16109326171875,5.974050521850586,8.377950668334961,0.3130500018596649
1784194476390177300,10.17117724609375,5.047050476074219,8.422050476074219,-0.6049500107765198
1784194476400261400,10.181261474609375,5.148000240325928,8.447999954223633,-0.16200000047683716
1784194476410345500,10.191345458984374,5.635950088500977,8.410050392150879,-0.05700000375509262
1784194476420429600,10.2014296875,5.401950359344482,8.319000244140625,0.23895001411437988
1784194476430513700,10.211513671875,5.158050060272217,8.449950218200684,-0.13395000994205475
1784194476440597800,10.22159765625,5.152950286865234,8.527050018310547,-0.26805001497268677
1784194476450681900,10.231681884765624,5.881050109863281,8.299050331115723,0.14100000262260437
1784194476460766000,10.241765869140625,5.16195011138916,8.299050331115723,0.022950001060962677
1784194476470850000,10.25185009765625,5.167050361633301,8.410050392150879,0.21705001592636108
1784194476480934100,10.26193408203125,5.602950096130371,8.457000732421875,-0.49695003032684326
1784194476491018200,10.272018310546875,5.313000202178955,8.320950508117676,0.3949500322341919
1784194476501102300,10.282102294921875,5.193000316619873,8.25195026397705,0.05205000191926956
1784194476511186400,10.2921865234375,5.410950183868408,8.467050552368164,-0.05700000375509262
1784194476521270500,10.3022705078125,5.418000221252441,8.196000099182129,0.010950000956654549
1784194476531354600,10.312354736328125,4.999950408935547,8.223000526428223,-0.19095000624656677
1784194476541438700,10.322438720703126,5.445000171661377,8.287050247192383,0.4540500342845917
1784194476551522600,10.3325224609375,5.248950481414795,8.344950675964355,-0.2939999997615814
1784194476561606700,10.342606689453126,5.260050296783447,8.296950340270996,0.04305000230669975
1784194476571691000,10.35269091796875,5.518950462341309,8.212950706481934,-0.18105000257492065
1784194476581774800,10.36277490234375,5.26800012588501,8.38800048828125,0.004050000105053186
1784194476591859000,10.37285888671875,5.277000427246094,8.40195083618164,0.14295001327991486
1784194476601943000,10.382943115234376,5.212950229644775,8.176950454711914,-0.31800001859664917
1784194476612027100,10.393027099609375,5.136000156402588,8.143950462341309,-0.019050000235438347
1784194476622111200,10.403111328125,5.335050106048584,8.200950622558594,-0.04500000178813934
1784194476632195300,10.4131953125,5.14995002746582,8.275050163269043,0.04305000230669975
1784194476642279400,10.423279541015624,4.936950206756592,8.055000305175781,-0.19095000624656677
1784194476652363500,10.433363525390625,5.064000129699707,7.981050491333008,-0.12405000627040863
1784194476662447600,10.443447509765624,5.215050220489502,7.959000587463379,-0.11700000613927841
1784194476672531500,10.453531494140625,5.101950168609619,8.143950462341309,-0.2460000067949295
1784194476682615600,10.463615478515624,5.137950420379639,8.191950798034668,-0.04500000178813934
1784194476692700000,10.473699951171875,5.023050308227539,8.08905029296875,-0.3540000021457672
1784194476702783700,10.48378369140625,5.184000015258789,8.12700080871582,-0.07395000010728836
1784194476712868000,10.4938681640625,5.703000068664551,8.292000770568848,-0.3850500285625458
1784194476722952000,10.503951904296875,5.074050426483154,8.40195083618164,-0.016050001606345177
1784194476733036000,10.5140361328125,4.815000057220459,8.218050003051758,-0.3040500283241272
1784194476743120100,10.5241201171875,5.524050235748291,8.010000228881836,-0.4020000100135803
1784194476753204200,10.534204345703126,5.229000091552734,8.105999946594238,-0.0690000057220459
1784194476763288300,10.544288330078125,5.038050174713135,8.37405014038086,-0.49500003457069397
1784194476773372400,10.554372314453126,5.517000198364258,8.302050590515137,-0.0019500000635161996
1784194476783456500,10.56445654296875,4.923000335693359,8.185050010681152,-0.226950004696846
1784194476793540600,10.57454052734375,4.966050148010254,8.248950004577637,-0.23205001652240753
1784194476803624700,10.584624755859375,5.713050365447998,8.404950141906738,-0.09495000541210175
1784194476813708800,10.594708740234376,5.143050193786621,8.437950134277344,-0.37800002098083496
1784194476823793000,10.60479296875,4.9710001945495605,8.3899507522583,-0.22500000894069672
1784194476833877000,10.614876953125,5.44005012512207,8.259000778198242,-0.1579500138759613
1784194476843961000,10.624961181640625,5.442000389099121,8.26395034790039,-0.33000001311302185
1784194476854045000,10.635044921875,5.074050426483154,8.491050720214844,-0.08295000344514847
1784194476864129000,10.64512890625,5.289000034332275,8.43600082397461,-0.3949500322341919
1784194476874213000,10.655213134765624,5.509050369262695,8.290050506591797,-0.16500000655651093
1784194476884297200,10.665297119140625,5.155050277709961,8.272950172424316,-0.2650500237941742
1784194476894381300,10.67538134765625,5.026050090789795,8.452950477600098,-0.15000000596046448
1784194476904465400,10.68546533203125,5.572050094604492,8.428950309753418,-0.022950001060962677
1784194476914549500,10.695549560546874,5.328000068664551,8.290050506591797,-0.20100000500679016
1784194476924633600,10.705633544921875,4.849050045013428,8.247000694274902,-0.06405000388622284
1784194476934717700,10.7157177734375,5.389950275421143,8.40000057220459,-0.1360500007867813
1784194476944801800,10.7258017578125,5.605050086975098,8.36400032043457,-0.22905001044273376
1784194476954886000,10.735885986328125,5.14995002746582,8.472000122070312,0.031050002202391624
1784194476964970000,10.745969970703126,5.347050189971924,8.380949974060059,-0.14595000445842743
1784194476975054000,10.75605419921875,5.442000389099121,8.527050018310547,-0.10695000737905502
1784194476985138000,10.766137939453126,5.188950061798096,8.355000495910645,-0.13095000386238098
1784194476995222000,10.776221923828125,5.362950325012207,8.368950843811035,-0.04500000178813934
1784194477005306000,10.78630615234375,5.505000114440918,8.244000434875488,0.0499500036239624
1784194477015390200,10.79639013671875,5.434950351715088,8.34000015258789,-0.2580000162124634
1784194477025474300,10.806474365234376,4.789050102233887,8.227950096130371,0.15300001204013824
1784194477035558400,10.816558349609375,5.478000164031982,8.247000694274902,-0.32805001735687256
1784194477045642500,10.826642578125,5.517000198364258,8.185050010681152,0.06405000388622284
1784194477055726600,10.8367265625,5.329950332641602,8.224950790405273,-0.05205000191926956
1784194477065810700,10.846810791015624,4.88700008392334,8.331000328063965,-0.14100000262260437
1784194477075894800,10.856894775390625,5.193000316619873,8.161050796508789,0.14595000445842743
1784194477085979000,10.866978759765624,5.6770501136779785,7.99500036239624,-0.4519500136375427
1784194477096063000,10.87706298828125,4.863000392913818,8.220000267028809,0.4039500057697296
1784194477106147000,10.88714697265625,5.25600004196167,8.254050254821777,-0.5290500521659851
1784194477116231200,10.897231201171875,6.0360002517700195,8.07194995880127,-0.0070500001311302185
1784194477126315300,10.907315185546874,4.972950458526611,7.981050491333008,-0.10005000233650208
1784194477136399400,10.9173994140625,4.879950046539307,8.359050750732422,-0.4140000343322754
1784194477146483500,10.9274833984375,6.252000331878662,8.295000076293945,0.10500000417232513
1784194477156567600,10.937567626953125,5.338950157165527,8.026050567626953,-0.47805002331733704
1784194477166651400,10.9476513671875,4.966050148010254,8.11500072479248,-0.0070500001311302185
1784194477176735500,10.957735595703125,5.742000102996826,8.296950340270996,-0.07905000448226929
1784194477186819600,10.967819580078125,5.5570502281188965,8.35004997253418,-0.1290000081062317
1784194477196903700,10.977903564453126,5.044950008392334,8.07194995880127,0.0070500001311302185
1784194477206987800,10.98798779296875,5.425950050354004,8.023950576782227,-0.019050000235438347
1784194477217071900,10.99807177734375,5.701050281524658,8.07194995880127,-0.019050000235438347
1784194477227155700,11.00815576171875,5.179050445556641,8.14905071258545,0.1360500007867813
1784194477237239800,11.01823974609375,5.3110504150390625,7.957050323486328,0.19095000624656677
1784194477247324000,11.028323974609375,5.671950340270996,7.924050331115723,0.07095000147819519
1784194477257408000,11.038407958984376,5.622000217437744,8.04104995727539,0.4159500300884247
1784194477267492000,11.0484921875,5.167050361633301,8.0910005569458,0.1360500007867813
1784194477277576200,11.058576171875,5.683950424194336,8.043000221252441,0.4759500324726105
1784194477287660300,11.068660400390625,5.407050132751465,7.873050212860107,0.17400000989437103
1784194477297744400,11.078744384765624,5.284050464630127,7.945050239562988,0.48795002698898315
1784194477307828500,11.088828369140625,5.715000152587891,7.873050212860107,0.3349500298500061
1784194477317912600,11.09891259765625,5.45205020904541,7.912050247192383,0.226950004696846
1784194477327996700,11.10899658203125,5.335050106048584,7.959000587463379,0.5689499974250793
1784194477338080800,11.119080810546874,5.658000469207764,7.927950382232666,0.39195001125335693
1784194477348164900,11.129164794921875,5.719950199127197,7.81095027923584,0.4740000367164612
1784194477358249000,11.1392490234375,5.323050022125244,8.006999969482422,0.4519500136375427
1784194477368333000,11.1493330078125,5.658000469207764,8.047950744628906,0.675000011920929
1784194477378417200,11.159417236328125,5.791950225830078,7.915950298309326,0.5329500436782837
1784194477388501200,11.169501220703125,5.514000415802002,7.864050388336182,0.4519500136375427
1784194477398585300,11.17958544921875,5.57895040512085,7.927950382232666,0.3660000264644623
1784194477408669400,11.18966943359375,5.75100040435791,8.058000564575195,0.4759500324726105
1784194477418753300,11.199753173828125,5.596050262451172,7.963950157165527,0.4900500178337097
1784194477428837400,11.20983740234375,5.229000091552734,7.891950607299805,0.3540000021457672
1784194477438921500,11.21992138671875,6.0859503746032715,7.91895055770874,0.45900002121925354
1784194477449005600,11.230005615234376,5.47605037689209,8.019000053405762,0.4930500090122223
1784194477459089700,11.240089599609375,5.45205020904541,8.04104995727539,0.5380499958992004
1784194477469173800,11.250173828125,6.139050483703613,7.891950607299805,0.41100001335144043
1784194477479257900,11.2602578125,5.48805046081543,7.921050548553467,0.3469500243663788
1784194477489342000,11.270342041015626,5.5600504875183105,8.023950576782227,0.3160500228404999
1784194477499426000,11.280426025390625,5.83305025100708,8.062050819396973,0.6580500602722168
1784194477509510100,11.29051025390625,5.689050197601318,7.966950416564941,0.48795002698898315
1784194477519594200,11.30059423828125,5.497950077056885,7.9830002784729,0.2989500164985657
1784194477529678300,11.31067822265625,5.881050109863281,8.082000732421875,0.7579500079154968
1784194477539762400,11.320762451171875,5.7370500564575195,8.110050201416016,0.1290000081062317
1784194477549846500,11.330846435546874,5.425950050354004,8.0149507522583,0.5839500427246094
1784194477559930600,11.3409306640625,5.931000232696533,7.9830002784729,0.16695000231266022
1784194477570014700,11.3510146484375,5.644050121307373,8.105999946594238,0.38700002431869507
1784194477580098800,11.361098876953125,5.860950469970703,8.09595012664795,0.43800002336502075
1784194477590183000,11.371182861328125,5.662950038909912,7.990950584411621,0.21000000834465027
1784194477600267000,11.38126708984375,5.562000274658203,7.959000587463379,0.5959500074386597
1784194477610351000,11.39135107421875,5.725050449371338,8.105999946594238,0.034950003027915955
1784194477620435200,11.401435302734376,5.872950077056885,7.993050575256348,0.41100001335144043
1784194477630519000,11.41151904296875,5.778000354766846,7.9710001945495605,0.20295001566410065
1784194477640603100,11.42160302734375,5.257950305938721,7.99500036239624,0.25995001196861267
1784194477650687200,11.431687255859375,5.851950168609619,7.957050323486328,0.3130500018596649
1784194477660771300,11.441771240234376,5.908950328826904,7.9360504150390625,0.11400000751018524
1784194477670855400,11.45185546875,5.359050273895264,7.930950164794922,0.6000000238418579
1784194477680939500,11.461939453125,5.84505033493042,8.11305046081543,-0.022950001060962677
1784194477691023600,11.472023681640625,5.7870001792907715,8.0149507522583,0.16695000231266022
1784194477701107700,11.482107666015626,5.430000305175781,7.921050548553467,0.17205001413822174
1784194477711191800,11.49219189453125,5.76300048828125,8.059950828552246,0.27195000648498535
1784194477721276000,11.50227587890625,6.112950325012207,8.067000389099121,0.20805001258850098
1784194477731360000,11.512360107421875,5.683950424194336,7.987950325012207,-0.16200000047683716
1784194477741444000,11.522444091796874,5.392050266265869,8.002950668334961,0.544950008392334
1784194477751528200,11.532528076171875,6.127050399780273,8.050050735473633,-0.21000000834465027
1784194477761612300,11.5426123046875,5.8060503005981445,8.029050827026367,0.46605002880096436
1784194477771696400,11.5526962890625,5.349000453948975,7.878000259399414,-0.022950001060962677
1784194477781780500,11.562780517578124,6.022050380706787,8.023950576782227,0.27195000648498535
1784194477791864600,11.572864501953125,6.142050266265869,8.196000099182129,0.27195000648498535
1784194477801948700,11.58294873046875,5.490000247955322,8.070000648498535,-0.010950000956654549
1784194477812032500,11.593032470703125,6.177000522613525,8.11500072479248,0.08595000207424164
1784194477822116600,11.60311669921875,6.031050205230713,8.206049919128418,0.08595000207424164
1784194477832201000,11.613200927734376,5.979000091552734,8.275050163269043,-0.28395000100135803
1784194477842284800,11.623284912109375,6.156000137329102,8.32800006866455,0.18405000865459442
1784194477852369200,11.633369140625,5.797050476074219,8.239950180053711,0.18105000257492065
1784194477862453200,11.643453369140625,6.142050266265869,8.206049919128418,-0.14595000445842743
1784194477872537300,11.653537353515626,5.943000316619873,8.164950370788574,0.26295000314712524
1784194477882621400,11.663621337890625,5.143050193786621,8.038050651550293,-0.18900001049041748
1784194477892705500,11.67370556640625,6.124950408935547,8.059950828552246,0.5119500160217285
1784194477902789600,11.68378955078125,6.097950458526611,7.938000202178955,-0.226950004696846
1784194477912873700,11.693873779296876,4.485000133514404,7.870950222015381,0.32505002617836
1784194477922957600,11.70395751953125,5.328000068664551,7.729950428009033,-0.1360500007867813
1784194477933041700,11.714041748046874,5.802000045776367,7.600050449371338,0.7609500288963318
1784194477943125800,11.724125732421875,4.485000133514404,7.258050441741943,0.5119500160217285
1784194477953209900,11.7342099609375,4.645050048828125,7.3560004234313965,0.2050500065088272
1784194477963294000,11.7442939453125,5.533050060272217,7.2960004806518555,1.1010000705718994
1784194477973378000,11.7543779296875,5.079000473022461,7.423050403594971,0.3679500222206116
1784194477983462100,11.764462158203125,4.554000377655029,7.387050151824951,1.2610501050949097
1784194477993546200,11.774546142578124,5.131050109863281,7.408950328826904,-0.04500000178813934
1784194478003630300,11.78463037109375,5.220000267028809,7.4350504875183105,0.9480000734329224
1784194478013714400,11.79471435546875,4.9519500732421875,7.44705057144165,0.8250000476837158
1784194478023798500,11.804798583984375,5.361000061035156,7.468950271606445,0.3829500079154968
1784194478033882600,11.814882568359375,5.725050449371338,7.513950347900391,0.9760500192642212
1784194478043966700,11.824966796875,5.401950359344482,7.717950344085693,0.361050009727478
1784194478054050800,11.83505078125,5.188950061798096,7.651050567626953,1.009950041770935
1784194478064135000,11.845135009765626,5.7870001792907715,7.804050445556641,0.32295000553131104
1784194478074219000,11.855218994140625,5.536050319671631,7.782000541687012,0.39195001125335693
1784194478084303000,11.86530322265625,5.983950138092041,7.761000156402588,0.8020500540733337
1784194478094387200,11.87538720703125,5.9239501953125,7.7059502601623535,0.06195000186562538
1784194478104471300,11.88547119140625,5.325000286102295,7.885050296783447,0.6240000128746033
1784194478114555400,11.895555419921875,5.9070000648498535,7.926000595092773,0.04305000230669975
1784194478124639500,11.905639404296876,5.9599504470825195,7.927950382232666,0.11400000751018524
1784194478134723600,11.9157236328125,5.622000217437744,7.927950382232666,0.45900002121925354
1784194478144807700,11.9258076171875,5.713050365447998,8.079000473022461,-0.286950021982193
1784194478154891800,11.935891845703125,6.225000381469727,7.933050155639648,0.2749500274658203
1784194478164975600,11.9459755859375,6.169950485229492,8.0910005569458,-0.20100000500679016
1784194478175059700,11.956059814453125,5.409000396728516,8.239950180053711,-0.009000000543892384
1784194478185143800,11.966143798828124,6.180000305175781,8.25195026397705,0.0690000057220459
1784194478195228000,11.976227783203125,6.355050086975098,7.981050491333008,-0.4710000157356262
1784194478205312000,11.98631201171875,5.802000045776367,8.047950744628906,0.27000001072883606
1784194478215396000,11.99639599609375,5.944950103759766,8.194050788879395,-0.3559500277042389
1784194478225480200,12.006480224609374,6.534000396728516,8.116950035095215,-0.15000000596046448
1784194478235564300,12.016564208984375,6.391050338745117,7.9710001945495605,-0.23205001652240753
1784194478245648400,12.0266484375,6.148950099945068,8.176950454711914,-0.286950021982193
1784194478255732500,12.036732421875,6.867000102996826,8.355000495910645,-0.14595000445842743
1784194478265816600,12.046816650390625,6.1080002784729,8.326050758361816,-0.3630000054836273
1784194478275900400,12.056900390625,5.662950038909912,8.254050254821777,-0.04305000230669975
1784194478285984800,12.06698486328125,6.457950115203857,8.284950256347656,-0.1789500117301941
1784194478296068900,12.07706884765625,6.571950435638428,8.227950096130371,-0.29205000400543213
1784194478306153000,12.087153076171875,5.634000301361084,8.170050621032715,0.2530499994754791
1784194478316236800,12.09723681640625,6.438000202178955,8.323050498962402,-0.5839500427246094
1784194478326321000,12.10732080078125,6.414000511169434,8.275050163269043,0.33900001645088196
1784194478336405000,12.117405029296876,5.2819504737854,7.978950500488281,-0.14805001020431519
1784194478346489000,12.127489013671875,6.370950222015381,7.801050186157227,0.24795001745224
1784194478356573200,12.1375732421875,5.785050392150879,7.785000324249268,0.10200000554323196
1784194478366657300,12.1476572265625,5.413950443267822,7.846950531005859,0.11400000751018524
1784194478376741400,12.157741455078124,6.474000453948975,7.33905029296875,0.9259500503540039
1784194478386825200,12.1678251953125,5.713050365447998,7.222050189971924,0.14595000445842743
1784194478396909600,12.17790966796875,5.53095006942749,7.4760003089904785,0.8929500579833984
1784194478406993400,12.187993408203125,5.964000225067139,7.677000522613525,0.5790000557899475
1784194478417077800,12.198077880859374,6.237000465393066,7.459050178527832,0.7300500273704529
1784194478427161900,12.208161865234375,5.359050273895264,7.255950450897217,0.7849500179290771
1784194478437245700,12.21824560546875,5.742000102996826,7.270050525665283,0.5689499974250793
1784194478447329800,12.228329833984375,6.343050479888916,7.432950496673584,0.547950029373169
1784194478457414100,12.2384140625,5.4280500411987305,7.677000522613525,0.8179500102996826
1784194478467498000,12.248498046875,5.964000225067139,7.624050140380859,0.4639500081539154
1784194478477582300,12.258582275390625,6.157950401306152,7.528950214385986,0.4519500136375427
1784194478487666400,12.26866650390625,5.8090500831604,7.533000469207764,0.6169500350952148
1784194478497750500,12.27875048828125,5.691000461578369,7.678950309753418,0.22005000710487366
1784194478507834600,12.288834716796876,5.418000221252441,7.818000316619873,0.7660500407218933
1784194478517918700,12.298918701171875,6.172950267791748,7.5859503746032715,0.1380000114440918
1784194478528002600,12.30900244140625,5.502000331878662,7.4760003089904785,0.4350000321865082
1784194478538086700,12.319086669921875,5.871000289916992,7.654950141906738,0.4540500342845917
1784194478548170800,12.329170654296876,5.658000469207764,7.762950420379639,-0.21000000834465027
1784194478558254800,12.3392548828125,5.622000217437744,7.72005033493042,0.4810500144958496
1784194478568339000,12.3493388671875,6.043050289154053,7.591050148010254,-0.3660000264644623
1784194478578423000,12.359423095703125,5.470950126647949,7.675050258636475,-0.0070500001311302185
1784194478588507100,12.369507080078124,6.130050182342529,7.701000213623047,-0.05205000191926956
1784194478598591200,12.37959130859375,5.818050384521484,7.717950344085693,-0.10695000737905502
1784194478608675300,12.38967529296875,5.94795036315918,7.70805025100708,0.30105000734329224
1784194478618759400,12.399759521484375,5.980950355529785,7.818000316619873,-0.39900001883506775
1784194478628843500,12.409843505859374,6.094050407409668,7.828050136566162,0.23400001227855682
1784194478638927600,12.419927734375,5.818050384521484,7.861050605773926,-0.07095000147819519
1784194478649011700,12.43001171875,5.818050384521484,7.837050437927246,-0.15300001204013824
1784194478659095800,12.440095703125,6.70395040512085,7.782000541687012,-0.06195000186562538
1784194478669180000,12.450179931640625,5.859000205993652,7.861050605773926,-0.025950001552700996
1784194478679264000,12.460263916015625,5.85705041885376,7.959000587463379,0.1099500060081482
1784194478689348000,12.47034814453125,6.412050247192383,7.957050323486328,-0.19095000624656677
1784194478699432200,12.48043212890625,6.1180500984191895,7.821000576019287,0.2560500204563141
1784194478709516300,12.490516357421875,5.9070000648498535,7.962000370025635,-0.1189500093460083
1784194478719600400,12.500600341796876,6.445950508117676,8.026050567626953,0.3559500277042389
1784194478729684500,12.5106845703125,6.4960503578186035,7.891950607299805,-0.10005000233650208
1784194478739768600,12.5207685546875,5.506950378417969,7.813050270080566,0.2939999997615814
1784194478749852400,12.530852294921875,6.324000358581543,7.903950214385986,-0.025950001552700996
1784194478759936500,12.5409365234375,6.328050136566162,7.930950164794922,0.037950001657009125
1784194478770020600,12.5510205078125,5.932950496673584,7.792050361633301,0.25095000863075256
1784194478780104700,12.561104736328126,6.261000156402588,7.789050579071045,-0.2370000183582306
1784194478790188800,12.571188720703125,6.019050121307373,7.72005033493042,0.47805002331733704
1784194478800273000,12.58127294921875,6.319050312042236,7.729950428009033,-0.12195000797510147
1784194478810357000,12.59135693359375,5.719950199127197,7.633950233459473,0.6790500283241272
1784194478820441000,12.601441162109374,6.418950080871582,7.702950477600098,0.11205000430345535
1784194478830525200,12.611525146484375,6.217950344085693,7.801050186157227,0.31800001859664917
1784194478840609300,12.621609375,5.791950225830078,7.72005033493042,0.5209500193595886
1784194478850693400,12.631693359375,6.3670501708984375,7.678950309753418,-0.04500000178813934
1784194478860777500,12.641777587890624,6.015000343322754,7.737000465393066,0.37995001673698425
1784194478870861600,12.651861572265625,5.991000175476074,7.762950420379639,-0.05895000323653221
1784194478880945700,12.661945556640624,6.02400016784668,7.770000457763672,0.5140500068664551
1784194478891029800,12.67202978515625,6.652050495147705,7.737000465393066,0.21000000834465027
1784194478901113900,12.68211376953125,5.6770501136779785,7.750950336456299,0.1770000010728836
1784194478911198000,12.692197998046876,5.995050430297852,7.8160505294799805,0.35100001096725464
1784194478921282000,12.702281982421875,6.541050434112549,7.689000129699707,0.1860000044107437
1784194478931366100,12.7123662109375,5.614950180053711,7.741950511932373,0.35895001888275146
1784194478941450200,12.7224501953125,6.241950511932373,7.653000354766846,0.1189500093460083
1784194478951534300,12.732534423828126,6.352050304412842,7.782000541687012,0.18405000865459442
1784194478961618400,12.742618408203125,6.064950466156006,7.746000289916992,0.44505003094673157
1784194478971702500,12.75270263671875,5.881050109863281,7.789050579071045,-0.12405000627040863
1784194478981786600,12.76278662109375,6.229950428009033,7.672050476074219,0.23205001652240753
1784194478991870700,12.77287060546875,5.974050521850586,7.660050392150879,-0.04005000367760658
1784194479001954800,12.782954833984375,6.01200008392334,7.780050277709961,0.09495000541210175
1784194479012039000,12.793038818359374,6.277950286865234,7.651050567626953,0.15495000779628754
1784194479022123000,12.803123046875,5.967000484466553,7.710000514984131,-0.4300500154495239
1784194479032206800,12.813206787109374,5.596050262451172,7.672050476074219,0.3040500283241272
1784194479042291000,12.823291015625,6.133950233459473,7.717950344085693,-0.1789500117301941
1784194479052375300,12.833375244140624,6.136950492858887,7.657950401306152,0.06705000251531601
1784194479062459400,12.84345947265625,5.662950038909912,7.651050567626953,0.019050000235438347
1784194479072543200,12.853543212890624,6.220950126647949,7.681950569152832,-0.2959500253200531
1784194479082627300,12.86362744140625,5.622000217437744,7.654950141906738,0.22005000710487366
1784194479092711400,12.87371142578125,5.767950057983398,7.653000354766846,-0.1960500031709671
1784194479102795500,12.88379541015625,6.043050289154053,7.633950233459473,-0.021000001579523087
1784194479112879600,12.893879638671875,5.545050144195557,7.591050148010254,-0.031050002202391624
1784194479122963700,12.903963623046875,6.051000118255615,7.612050533294678,-0.20100000500679016
1784194479133047800,12.9140478515625,5.782050132751465,7.5960001945495605,0.22500000894069672
1784194479143132000,12.9241318359375,5.815950393676758,7.567050457000732,-0.14595000445842743
1784194479153216000,12.934216064453125,5.665050506591797,7.749000549316406,-0.31095001101493835
1784194479163300000,12.944300048828126,5.884950160980225,7.741950511932373,0.14100000262260437
1784194479173384200,12.95438427734375,6.1180500984191895,7.5859503746032715,-0.361050009727478
1784194479183468300,12.96446826171875,5.629050254821777,7.72005033493042,0.09795000404119492
1784194479193552400,12.974552490234375,5.988000392913818,7.804050445556641,0.010950000956654549
1784194479203636500,12.984636474609376,6.019050121307373,7.773000240325928,-0.10695000737905502
1784194479213720600,12.994720458984375,5.848950386047363,7.710000514984131,0.1789500117301941
1784194479223804700,13.0048046875,5.635950088500977,7.629000186920166,-0.42600002884864807
1784194479233888800,13.014888671875,5.920950412750244,7.653000354766846,0.2460000067949295
1784194479243972900,13.024972900390624,5.928000450134277,7.5360002517700195,-0.021000001579523087
1784194479254057000,13.035056884765625,5.28000020980835,7.567050457000732,-0.1860000044107437
1784194479264141000,13.04514111328125,5.952000141143799,7.473000526428223,0.27195000648498535
