time,seconds_elapsed,z,y,x
1784194466331343600,0.112343505859375,0.0018119999440386891,-0.0031419999431818724,-0.0031250000465661287
1784194466341321700,0.12232177734375,-0.003028000006452203,-0.0030980000738054514,0.0016550000291317701
1784194466351423000,0.132423095703125,0.004118000157177448,-0.003071000101044774,-0.0007099999929778278
1784194466361524200,0.142524169921875,0.004137000069022179,-0.0030869999900460243,0.0017259999876841903
1784194466371678700,0.1526787109375,-0.005501000210642815,-0.0030360000673681498,0.004147999919950962
1784194466381666000,0.162666015625,-0.005526999942958355,-0.0078050000593066216,0.0017659999430179596
1784194466391767300,0.172767333984375,0.0016159999649971724,-0.0029849999118596315,0.0017940000398084521
1784194466401838000,0.182838134765625,-0.0031429999507963657,-0.0006150000263005495,-0.0030320000369101763
1784194466411939300,0.192939208984375,-0.005563999991863966,-0.0029879999347031116,-0.0055160000920295715
1784194466422098700,0.2030986328125,-0.0008019999950192869,-0.0029700000304728746,0.0016740000573918223
1784194466432183000,0.21318310546875,0.0016319999704137444,0.001787999994121492,0.00394799979403615
1784194466442267000,0.223266845703125,-0.0007179999956861138,0.0017519999528303742,-0.000826000003144145
1784194466452351000,0.23335107421875,0.0016469999682158232,-0.0054060001857578754,-0.0031769999768584967
1784194466462324000,0.243323974609375,-0.000805000017862767,-0.0005719999899156392,-0.0008069999748840928
1784194466472519000,0.253518798828125,-0.010418999940156937,-0.0029380000196397305,0.004025000147521496
1784194466482526700,0.263526611328125,-0.010340999811887741,-0.005390999838709831,0.004038000013679266
1784194466492567000,0.273567138671875,-0.0055669997818768024,-0.0029879999347031116,-0.0008009999874047935
1784194466502668300,0.283668212890625,-0.007987000048160553,-0.002968000015243888,-0.0008219999726861715
1784194466512739000,0.293739013671875,-0.00800199992954731,0.0018319999799132347,0.003944000229239464
1784194466522939000,0.30393896484375,-0.003215000033378601,0.001832999987527728,0.006351999938488007
1784194466532941800,0.31394189453125,-0.005628000013530254,0.0018469999777153134,0.0014799999771639705
1784194466543106800,0.32410693359375,-0.007946999743580818,-0.0006050000083632767,-0.0009670000290498137
1784194466553083400,0.33408349609375,-0.007954999804496765,-0.005388000048696995,0.008652999997138977
1784194466563275000,0.34427490234375,-0.005584999918937683,-0.005371000152081251,0.00624299980700016
1784194466573359000,0.354359130859375,-0.003137999912723899,-0.0006220000213943422,-0.005810000002384186
1784194466583357000,0.36435693359375,-0.010263999924063683,-0.0030610000248998404,-0.0034229999873787165
1784194466593458200,0.374458251953125,-0.00787500012665987,-0.0006619999767281115,-0.0010509999701753259
1784194466603529000,0.384529052734375,0.0016929999692365527,0.004131000023335218,0.0036989999935030937
1784194466613630200,0.394630126953125,0.004056000150740147,-0.003029000014066696,0.006025000009685755
1784194466623701000,0.404700927734375,-0.0007929999846965075,-0.0029810001142323017,0.001154000055976212
1784194466633741300,0.4147412109375,-0.00801900029182434,-0.005342999938875437,0.008286000229418278
1784194466643842600,0.424842529296875,0.001534000039100647,-0.005326999817043543,0.008271999657154083
1784194466653913300,0.434913330078125,0.006264000199735165,-0.0004910000134259462,-0.0013170000165700912
1784194466664115000,0.445114990234375,-0.0009820000268518925,-0.0004419999895617366,-0.0012700000079348683
1784194466674199000,0.455198974609375,0.0013790000230073929,-0.00041199999395757914,0.00356299988925457
1784194466684283000,0.465282958984375,0.00851800013333559,0.004410000052303076,-0.0012080000014975667
1784194466694288100,0.4752880859375,-0.0011149999918416142,-0.0027290000580251217,-0.00609799986705184
1784194466704389400,0.485389404296875,-0.0035520000383257866,-0.002696000039577484,0.0034890000242739916
1784194466714429700,0.4954296875,0.008387000299990177,0.0021150000393390656,0.005900000222027302
1784194466724619000,0.505618896484375,0.008322999812662601,-0.0026209999341517687,0.0011119999689981341
1784194466734632400,0.515632568359375,-0.0012469999492168427,-0.007414000108838081,0.0010610000463202596
1784194466744672800,0.5256728515625,0.0034839999862015247,-0.002583000110462308,0.008210999891161919
1784194466754804200,0.53580419921875,0.005901999771595001,-0.00020799999765586108,0.005803000181913376
1784194466764875300,0.545875244140625,0.0011360000353306532,-0.002618999918922782,-0.0013770000077784061
1784194466775039000,0.5560390625,0.0010870000114664435,-0.0025820001028478146,-0.0014130000490695238
1784194466785123000,0.566123046875,0.0010389999952167273,-0.0025430000387132168,-0.0038429999258369207
1784194466795207000,0.57620703125,-0.0014019999653100967,-0.004898999817669392,0.0009239999926649034
1784194466805188900,0.58618896484375,-0.00623599998652935,-0.002469999948516488,0.0032689999788999557
1784194466815290000,0.5962900390625,-0.003863000078126788,-0.000060999998822808266,0.0032870001159608364
1784194466825361000,0.60636083984375,0.000986000057309866,0.002283999929204583,0.0008280000183731318
1784194466835431700,0.616431640625,-0.006147000007331371,-0.00014800000644754618,-0.004009000025689602
1784194466845627000,0.626626953125,-0.0061610001139342785,0.0022559999488294125,-0.008732999674975872
1784194466855634400,0.636634521484375,0.0010160000529140234,-0.0001320000010309741,0.0009360000258311629
1784194466865705200,0.646705322265625,0.003369000041857362,-0.000097999996796716,0.0009679999784566462
1784194466875776000,0.65677587890625,-0.0038620000705122948,0.0023350000847131014,-0.0037869999650865793
1784194466885877500,0.66687744140625,-0.001484000007621944,-0.0024399999529123306,0.0033919999841600657
1784194466896047000,0.677047119140625,0.008053000085055828,-0.00240899994969368,0.010591999627649784
1784194466906131200,0.687131103515625,0.005582999903708696,-0.0023499999660998583,0.003379999892786145
1784194466916215000,0.697215087890625,0.0031220000237226486,-0.004693000111728907,-0.003783999942243099
1784194466926221600,0.7072216796875,0.007848000153899193,-0.0022479998879134655,0.005853000096976757
1784194466936292400,0.717292236328125,0.005379000212997198,-0.002188999904319644,0.005853999871760607
1784194466946467000,0.727467041015625,0.0005249999812804163,-0.0021389999892562628,-0.0013259999686852098
1784194466956434000,0.737433837890625,0.007662000134587288,0.002684999955818057,-0.006068000104278326
1784194466966565600,0.747565673828125,0.012392999604344368,0.005125000141561031,0.003501000115647912
1784194466976606000,0.75760595703125,0.00761799979954958,0.0003260000084992498,0.0011220000451430678
1784194466986738000,0.767738037109375,0.005158000160008669,-0.004406999796628952,-0.0012400000123307109
1784194466996887000,0.777886962890625,0.0050860000774264336,-0.0019570000004023314,-0.0011940000113099813
1784194467006971100,0.78797119140625,0.00989499967545271,-0.0019729998894035816,-0.0011480000102892518
1784194467016980700,0.797980712890625,0.005109000019729137,-0.004366000182926655,0.001142999972216785
1784194467027021000,0.80802099609375,0.002643000101670623,-0.001918999943882227,0.0034209999721497297
1784194467037152800,0.81815283203125,0.009771999903023243,-0.001879999996162951,0.0009609999833628535
1784194467047307000,0.82830712890625,0.007296999916434288,0.0005760000203736126,0.00330400001257658
1784194467057325000,0.838324951171875,0.002445999998599291,0.0006270000012591481,0.0033209999091923237
1784194467067395800,0.848395751953125,0.007189000025391579,-0.006519000045955181,0.0009430000209249556
1784194467077466600,0.858466552734375,0.007187000010162592,-0.006517999805510044,0.0008929999894462526
1784194467087568000,0.86856787109375,0.002397000091150403,-0.0041229999624192715,0.0008430000161752105
1784194467097727200,0.878727294921875,0.002337000099942088,-0.0016820000018924475,0.0032709999941289425
1784194467107709700,0.888709716796875,-0.004894999787211418,0.003145999973639846,0.005681999959051609
1784194467117810700,0.898810791015625,-0.004904000088572502,0.003152000019326806,0.005683999974280596
1784194467127979300,0.908979248046875,0.0070569999516010284,-0.0016299999551847577,0.0056039998307824135
1784194467138063400,0.9190634765625,0.004676999989897013,0.0007539999787695706,0.010312000289559364
1784194467148147200,0.929147216796875,-0.0072639998979866505,0.0007280000136233866,0.01259700022637844
1784194467158155300,0.9391552734375,-0.00008900000102585182,-0.0016629999736323953,0.007619999814778566
1784194467168225800,0.949225830078125,0.0022609999869018793,-0.006417999975383282,0.007546000182628632
1784194467178296600,0.959296630859375,0.0045889997854828835,-0.003973000217229128,0.0074709998443722725
1784194467188398000,0.969398193359375,0.004521000199019909,-0.0015249999705702066,-0.002113000024110079
1784194467198499600,0.97949951171875,0.002067999914288521,-0.0038709999062120914,-0.0020620001014322042
1784194467208539600,0.98953955078125,0.002010999945923686,-0.0038270000368356705,0.00038300000596791506
1784194467218671600,0.999671630859375,0.004348000045865774,-0.008570999838411808,-0.006763000041246414
1784194467228712000,1.0097119140625,0.004269000142812729,-0.006113000214099884,-0.006682000122964382
1784194467238813200,1.019813232421875,0.0065899998880922794,-0.003659999929368496,-0.004271999932825565
1784194467248914400,1.02991455078125,0.01130599994212389,-0.0012080000014975667,-0.004354999866336584
1784194467258985200,1.039985107421875,0.006434999871999025,0.0012509999796748161,-0.004372000228613615
1784194467269056000,1.050055908203125,0.0039820000529289246,0.001294999965466559,0.0003980000037699938
1784194467279157500,1.060157470703125,0.008720999583601952,0.0013330000219866633,0.005222000181674957
1784194467289258800,1.0702587890625,0.001554999966174364,0.0013210000470280647,0.007621000055223703
1784194467299329500,1.08032958984375,0.0039090001955628395,0.003745999885722995,0.00761099997907877
1784194467309369900,1.090369873046875,0.011064999736845493,0.003768000053241849,0.009991000406444073
1784194467319575600,1.100575439453125,0.0015150000108405948,0.0013520000502467155,0.009961999952793121
1784194467329659600,1.11065966796875,-0.0032969999592751265,0.0037670000456273556,0.009998000226914883
1784194467339743500,1.120743408203125,0.0062779998406767845,0.008554000407457352,0.009968000464141369
1784194467349744600,1.13074462890625,0.013438000343739986,0.003783999942243099,0.00036199999158270657
1784194467359846000,1.140845947265625,0.0061900001019239426,-0.0033450000919401646,-0.011494999751448631
1784194467369886200,1.15088623046875,0.008526000194251537,-0.005692000035196543,-0.020965000614523888
1784194467379987500,1.160987548828125,0.01563500054180622,-0.0056329998187720776,-0.011304999701678753
1784194467390058200,1.171058349609375,0.006039000116288662,-0.005617000162601471,-0.001706999959424138
1784194467400129000,1.18112890625,-0.003601999953389168,-0.012749000452458858,0.010226000100374222
1784194467410261000,1.191260986328125,0.003530000103637576,-0.017501000314950943,0.005324999801814556
1784194467420415700,1.201415771484375,0.0011289999820291996,-0.017490999773144722,-0.0186149999499321
1784194467430433000,1.21143310546875,-0.008449000306427479,-0.015096999704837799,-0.023315999656915665
1784194467440503800,1.22150390625,-0.0036979999858886003,-0.015066999942064285,-0.020887000486254692
1784194467450574600,1.23157470703125,-0.001276999944821,0.016037000343203545,-0.016162000596523285
1784194467460645600,1.241645751953125,0.003539999946951866,-0.0007469999836757779,0.06768599897623062
1784194467470836000,1.2518359375,0.008369999937713146,-0.017542000859975815,0.043501000851392746
1784194467480848100,1.26184814453125,-0.0035490000154823065,0.02550799958407879,-0.10763800144195557
1784194467490919000,1.2719189453125,-0.010742999613285065,0.013555999845266342,-0.01361900009214878
1784194467501088000,1.282087890625,0.0251460000872612,0.0016049999976530671,0.0822020024061203
1784194467511172000,1.292172119140625,0.022794999182224274,0.023111000657081604,-0.01396699994802475
1784194467521256200,1.302256103515625,-0.0179469995200634,0.0279339998960495,-0.06173200160264969
1784194467531232800,1.312232666015625,0.006045999936759472,0.01592699997127056,0.007973999716341496
1784194467541334000,1.322333984375,0.022888999432325363,0.013465000316500664,0.05096999928355217
1784194467551435300,1.332435302734375,-0.0034370000939816236,0.011060000397264957,-0.016356000676751137
1784194467561475600,1.3424755859375,-0.010595000348985195,0.006252999883145094,-0.030666999518871307
1784194467571676200,1.35267626953125,0.006198999937623739,-0.0009560000034980476,0.017294999212026596
1784194467581647600,1.362647705078125,-0.0034280000254511833,-0.003312000073492527,0.029190000146627426
1784194467591844000,1.372843994140625,-0.00824000034481287,-0.008084000088274479,-0.009266000241041183
1784194467601820000,1.38281982421875,-0.0034680000972002745,-0.015251999720931053,-0.016356000676751137
1784194467611890700,1.392890625,0.0012619999470189214,-0.01999500021338463,0.01961199939250946
1784194467622096100,1.40309619140625,0.005960000213235617,-0.02231699973344803,0.014801000244915485
1784194467632062700,1.413062744140625,0.0010550000006332994,-0.022227000445127487,-0.009198999963700771
1784194467642194700,1.423194580078125,-0.0014349999837577343,-0.024545999243855476,0.0027809999883174896
1784194467652235000,1.433235107421875,0.005652999971061945,-0.022074999287724495,0.02434699982404709
1784194467662366700,1.44336669921875,0.012719999998807907,-0.014804000034928322,0.012257000431418419
1784194467672516400,1.453516357421875,0.003022999968379736,-0.009921999648213387,-0.011726999655365944
1784194467682600200,1.46360009765625,-0.004226000048220158,-0.007476000115275383,0.002597999991849065
1784194467692684300,1.473684326171875,0.012500000186264515,-0.007451999932527542,0.016832999885082245
1784194467702768400,1.483768310546875,0.010091000236570835,-0.0026539999525994062,0.002331000054255128
1784194467712781600,1.493781494140625,-0.00674000009894371,0.0045830002054572105,-0.009766999632120132
1784194467722936300,1.503936279296875,0.002850000048056245,0.004569999873638153,-0.002638000063598156
1784194467732953900,1.513953857421875,0.010011999867856503,0.0021929999347776175,0.00930000003427267
1784194467742994200,1.523994140625,-0.004327000118792057,0.009353999979794025,-0.007565999869257212
1784194467753126000,1.5341259765625,-0.009096000343561172,0.014125999994575977,-0.01720999926328659
1784194467763166200,1.544166259765625,0.0029269999358803034,0.011688999831676483,-0.0028510000556707382
1784194467773356500,1.5543564453125,0.0005329999839887023,0.009294000454246998,0.0019049999536946416
1784194467783368700,1.56436865234375,-0.00904100015759468,0.009291999973356724,-0.012520999647676945
1784194467793434600,1.5744345703125,-0.006606999784708023,0.011655000038444996,-0.017278999090194702
1784194467803510500,1.584510498046875,-0.004172999877482653,0.009232999756932259,-0.005247999913990498
1784194467813581300,1.594581298828125,-0.013731000013649464,0.006823999807238579,-0.00278700003400445
1784194467823682300,1.604682373046875,-0.011284000240266323,0.004387999884784222,-0.02188899926841259
1784194467833753300,1.61475341796875,-0.0063760001212358475,0.004298999905586243,-0.021716000512242317
1784194467843854600,1.6248544921875,-0.008755000308156013,0.006680000107735395,-0.009655999951064587
1784194467853956000,1.6349560546875,-0.006328999996185303,0.004261000081896782,-0.007249000016599894
1784194467864112600,1.645112548828125,-0.003920000046491623,0.004248000215739012,-0.00964600034058094
1784194467874196700,1.65519677734375,-0.008702999912202358,-0.0005440000095404685,-0.004844999872148037
1784194467884280800,1.66528076171875,-0.006298999767750502,-0.005338999908417463,-0.00007400000322377309
1784194467894269700,1.675269775390625,-0.0015249999705702066,-0.010115999728441238,-0.002432999899610877
1784194467904340500,1.685340576171875,0.005609000101685524,-0.010077999904751778,-0.004858999978750944
1784194467914411300,1.695411376953125,0.005534000229090452,-0.007625000085681677,0.0070940000005066395
1784194467924617000,1.705616943359375,0.007859000004827976,-0.009967000223696232,0.009394999593496323
1784194467934614000,1.715614013671875,0.0077749998308718204,-0.009902000427246094,0.011617000214755535
1784194467944684800,1.725684814453125,0.0005080000264570117,-0.009837999939918518,0.013891000300645828
1784194467954869000,1.735868896484375,0.005241999868303537,-0.007400999777019024,0.0209369994699955
1784194467964887300,1.74588720703125,0.012357000261545181,-0.004958000034093857,0.018363000825047493
1784194467975004400,1.75600439453125,0.009959000162780285,-0.002560999942943454,0.01582299917936325
1784194467985121000,1.76612109375,0.0027050001081079245,-0.00011300000187475234,0.01575700007379055
1784194467995205000,1.776205078125,0.007459999993443489,0.004701000172644854,0.02048099972307682
1784194468005201200,1.786201171875,0.012291000224649906,0.0022690000478178263,0.02277900092303753
1784194468015302400,1.796302490234375,0.0027340000960975885,0.0022539999336004257,0.02027600072324276
1784194468025373400,1.80637353515625,-0.0020810000132769346,0.004668000154197216,0.02018200047314167
1784194468035474700,1.816474609375,0.0003100000030826777,0.009456000290811062,0.020089000463485718
1784194468045625300,1.826625244140625,-0.011656000278890133,0.004662000108510256,0.01760300062596798
1784194468055709400,1.83670947265625,-0.018803000450134277,0.004633000120520592,0.0127379996702075
1784194468065793300,1.846793212890625,-0.009077999740839005,0.0021200000774115324,0.010215999558568
1784194468075757800,1.8567578125,-0.013764999806880951,-0.00035200000274926424,0.007792000193148851
1784194468085859000,1.866859130859375,-0.020834999158978462,-0.00044100001105107367,0.002988999942317605
1784194468101087500,1.88208740234375,-0.01600000075995922,-0.005266999825835228,-0.006676999852061272
1784194468116213500,1.897213623046875,-0.01119800005108118,-0.010067000053822994,-0.006639999803155661
1784194468126297300,1.90729736328125,-0.018391000106930733,-0.017242999747395515,-0.01382800005376339
1784194468136381400,1.91738134765625,-0.02087000012397766,-0.002807999961078167,-0.013787000440061092
1784194468146465500,1.927465576171875,-0.003976999782025814,-0.005305000115185976,-0.011269999668002129
1784194468156549600,1.937549560546875,0.0030990000814199448,-0.0028280001133680344,-0.018428999930620193
1784194468166633500,1.947633544921875,-0.006519000045955181,-0.005185999907553196,-0.011095999740064144
1784194468176717600,1.957717529296875,0.0006489999941550195,-0.0051739998161792755,-0.02775000035762787
1784194468186801700,1.9678017578125,0.00531500019133091,0.006895999889820814,-0.015568999573588371
1784194468196885500,1.977885498046875,-0.006676999852061272,0.011703000403940678,-0.032196998596191406
1784194468206969600,1.987969482421875,0.01259899977594614,0.004426999948918819,-0.01280600018799305
1784194468217053700,1.9980537109375,0.010147999972105026,0.002078999998047948,-0.02466299943625927
1784194468227137800,2.0081376953125,-0.009057999588549137,0.004517999943345785,-0.024491000920534134
1784194468237222000,2.018221923828125,0.01738799922168255,0.014010000042617321,-0.01001999992877245
1784194468247305700,2.0283056640625,0.017340000718832016,0.004470000043511391,-0.021976999938488007
1784194468257389800,2.038389892578125,0.005377000197768211,-0.0027169999666512012,-0.01006499957293272
1784194468267474000,2.048473876953125,-0.006645999848842621,-0.0026779999025166035,-0.024480000138282776
1784194468277557800,2.058557861328125,0.007796999998390675,-0.0003440000000409782,-0.0028909998945891857
1784194468287641900,2.068641845703125,0.003037000074982643,-0.00994499959051609,-0.00531500019133091
1784194468297725700,2.0787255859375,-0.006603999994695187,-0.00031800000579096377,-0.007788999937474728
1784194468307809800,2.088809814453125,0.00305499997921288,-0.007567999884486198,0.006512000225484371
1784194468317894000,2.098893798828125,-0.004100999794900417,-0.012377000413835049,0.006422999780625105
1784194468327978000,2.10897802734375,-0.01133000012487173,-0.012341000139713287,0.0159939993172884
1784194468338062000,2.11906201171875,-0.006560000125318766,0.0020379999186843634,0.011140000075101852
1784194468348146200,2.129146240234375,0.005415999796241522,-0.005152000114321709,0.01102100033313036
1784194468358230300,2.139230224609375,-0.023209000006318092,-0.0028379999566823244,0.030222000554203987
1784194468368314000,2.149314208984375,-0.02084200084209442,-0.00521400012075901,0.022801000624895096
1784194468378398200,2.159398193359375,0.0007440000190399587,0.001934999949298799,0.01559200044721365
1784194468388482300,2.169482421875,-0.025529000908136368,-0.0029009999707341194,0.029891999438405037
1784194468398566100,2.179566162109375,-0.027939999476075172,0.004292000085115433,0.008190999738872051
1784194468408650200,2.189650146484375,-0.008774000220000744,-0.005295000039041042,0.020080000162124634
1784194468418734300,2.199734375,-0.02298099920153618,0.0017600000137463212,0.017594000324606895
1784194468428818400,2.209818359375,-0.020517999306321144,0.008887000381946564,0.0104179996997118
1784194468438902500,2.219902587890625,-0.006072999909520149,0.004033000208437443,0.010238000191748142
1784194468448986400,2.229986328125,-0.013244000263512135,-0.003160000080242753,0.0077309999614953995
1784194468459070500,2.240070556640625,-0.020408999174833298,-0.0007789999945089221,0.012505000457167625
1784194468469154600,2.250154541015625,-0.006072999909520149,-0.005543999839574099,-0.0019030000548809767
1784194468479238400,2.26023828125,0.0010900000343099236,-0.0031349998898804188,0.012507000006735325
1784194468489322500,2.270322509765625,-0.015706999227404594,-0.0078940000385046,-0.006690000183880329
1784194468499406600,2.280406494140625,-0.0036379999946802855,-0.005572999827563763,-0.0018240000354126096
1784194468509490700,2.29049072265625,0.0011210000375285745,-0.005553000140935183,-0.013832000084221363
1784194468519574800,2.30057470703125,-0.01807600073516369,0.00406000018119812,-0.006527999881654978
1784194468529658600,2.31065869140625,0.00815299991518259,0.011327000334858894,-0.016029000282287598
1784194468539742700,2.32074267578125,0.027286000549793243,0.001769999973475933,-0.03496599942445755
1784194468549826800,2.330826904296875,-0.02055799961090088,-0.012625000439584255,-0.01092000026255846
1784194468559910700,2.34091064453125,-0.015835000202059746,0.018552999943494797,-0.0036329999566078186
1784194468569994800,2.350994873046875,0.05121200159192085,0.004178999923169613,-0.013152999803423882
1784194468580078800,2.361078857421875,0.0033680000342428684,-0.005423999857157469,0.0013249999610707164
1784194468590163000,2.371162841796875,-0.068511001765728,0.008981999941170216,-0.04892599955201149
1784194468600247000,2.3812470703125,0.060965001583099365,0.004048999864608049,0.016062000766396523
1784194468610331000,2.391330810546875,0.0011919999960809946,-0.00559200020506978,0.004021000117063522
1784194468620415000,2.4014150390625,-0.04913200065493584,0.0016240000259131193,-0.02717600017786026
1784194468630499000,2.4114990234375,0.025095000863075256,0.004013000056147575,-0.003108999924734235
1784194468640583000,2.4215830078125,0.008391999639570713,-0.0008190000080503523,0.008829999715089798
1784194468650667000,2.4316669921875,-0.04912500083446503,-0.005559000186622143,0.004002000205218792
1784194468660751000,2.441751220703125,-0.005962000228464603,-0.012795999646186829,-0.02710999920964241
1784194468670835200,2.451835205078125,0.015626000240445137,-0.005646000150591135,0.006401000078767538
1784194468680919300,2.461919189453125,-0.0513480007648468,-0.010484999977052212,0.02307100035250187
1784194468691003400,2.47200341796875,-0.03213400021195412,-0.02011300064623356,-0.008244999684393406
1784194468701087200,2.482087158203125,0.015789000317454338,-0.012961000204086304,-0.008155999705195427
1784194468711171300,2.49217138671875,-0.04402599856257439,-0.012992000207304955,0.013327999971807003
1784194468721255400,2.50225537109375,-0.029635999351739883,0.003745999885722995,0.025169000029563904
1784194468731339500,2.512339599609375,0.035107001662254333,-0.0011239999439567327,-0.018050000071525574
1784194468741423600,2.522423583984375,-0.024744000285863876,0.0036619999445974827,0.0011660000309348106
1784194468751507500,2.532507568359375,-0.027139000594615936,-0.0035180000122636557,0.02746500074863434
1784194468761591600,2.542591552734375,0.027831999585032463,0.02049499936401844,0.0010550000006332994
1784194468771675600,2.552675537109375,0.030239999294281006,0.027667999267578125,-0.01807199977338314
1784194468781759500,2.562759521484375,-0.022404000163078308,0.020465999841690063,0.003619000082835555
1784194468791843600,2.572843505859375,0.013632000423967838,0.017973000183701515,-0.001075000036507845
1784194468801927700,2.582927734375,0.037553999572992325,0.015598000027239323,0.006144999992102385
1784194468812011800,2.59301171875,-0.012845000252127647,0.020481999963521957,-0.022525999695062637
1784194468822096000,2.603095947265625,0.008709000423550606,0.010901999659836292,0.003984000068157911
1784194468832179700,2.6131796875,0.015946999192237854,0.010855999775230885,0.006238000001758337
1784194468842263800,2.623263916015625,-0.010356999933719635,0.013226999901235104,-0.020104000344872475
1784194468852347600,2.63334765625,-0.01269499957561493,-0.005969999823719263,-0.012826000340282917
1784194468862431700,2.643431640625,-0.015166999772191048,-0.010696999728679657,-0.017645999789237976
1784194468872515800,2.653515869140625,-0.019869999960064888,-0.013159000314772129,0.006359000224620104
1784194468882600000,2.663599853515625,-0.022252000868320465,-0.015564000234007835,-0.008093000389635563
1784194468892683800,2.673683837890625,-0.02942200005054474,-0.015576000325381756,-0.015336000360548496
1784194468902767900,2.683767822265625,-0.019801000133156776,-0.027580000460147858,-0.010497000068426132
1784194468912852000,2.69385205078125,-0.029324999079108238,-0.02761800028383732,0.0014280000468716025
1784194468922936000,2.70393603515625,-0.03658699989318848,-0.013193000108003616,-0.0033319999929517508
1784194468933020000,2.71402001953125,-0.022060999646782875,-0.02289699949324131,-0.024904999881982803
1784194468943104000,2.72410400390625,-0.036435000598430634,-0.013311999849975109,-0.0033110000658780336
1784194468953188000,2.73418798828125,-0.021995000541210175,-0.020555000752210617,-0.010502000339329243
1784194468963272000,2.74427197265625,-0.014814999885857105,-0.013369999825954437,-0.005758999846875668
1784194468973356000,2.75435595703125,-0.036371998488903046,-0.006180000025779009,-0.022512000054121017
1784194468983440100,2.764440185546875,-0.014809000305831432,-0.01337399985641241,-0.0009330000029876828
1784194468993524200,2.774524169921875,-0.017212999984622,-0.0013970000436529517,-0.0058280001394450665
1784194469003608300,2.7846083984375,-0.014863000251352787,-0.0013630000175908208,0.010770999826490879
1784194469013692400,2.7946923828125,0.006711000110954046,0.005791000090539455,-0.01104000024497509
1784194469023776300,2.8047763671875,-0.002735000103712082,-0.006283000111579895,-0.003967000171542168
1784194469033860400,2.8148603515625,-0.007557000033557415,-0.003865000093355775,0.0077669997699558735
1784194469043944400,2.8249443359375,0.01398099958896637,0.00810800027102232,0.007521999999880791
1784194469054028300,2.8350283203125,-0.0002699999895412475,0.015200999565422535,0.01931300014257431
1784194469064112400,2.8451123046875,0.009325000457465649,0.010390999726951122,0.01668200083076954
1784194469074196200,2.8551962890625,0.011773999780416489,0.015135000459849834,0.009197000414133072
1784194469084280300,2.8652802734375,-0.007406000047922134,0.015150999650359154,0.01620600000023842
1784194469094364400,2.875364501953125,0.02616100013256073,0.01510899979621172,0.020778000354766846
1784194469104448500,2.885448486328125,0.007009999826550484,0.017500000074505806,0.013496999628841877
1784194469114532600,2.89553271484375,-0.00017100000695791095,0.007921000011265278,0.02062699943780899
1784194469124616400,2.905616455078125,0.00940600037574768,0.003131000092253089,0.015659000724554062
1784194469134700500,2.915700439453125,0.0021699999924749136,0.012746999971568584,0.013199999928474426
1784194469144784600,2.92578466796875,0.01183599978685379,0.010282999835908413,0.010755999945104122
1784194469154868700,2.93586865234375,0.014108999632298946,0.0008019999950192869,0.0035379999317228794
1784194469164952600,2.94595263671875,0.006849000230431557,-0.003926000092178583,0.0012369999894872308
1784194469175036700,2.95603662109375,0.009180000051856041,-0.003874999936670065,-0.0010470000561326742
1784194469185120800,2.966120849609375,0.0067159999161958694,-0.018180999904870987,-0.015289000235497952
1784194469195204900,2.976204833984375,0.004215999972075224,-0.01809599995613098,-0.0031870000530034304
1784194469205288700,2.986288818359375,0.004118999931961298,-0.018019000068306923,-0.012709000147879124
1784194469215372800,2.996372802734375,0.011291000060737133,-0.022794999182224274,-0.019694000482559204
1784194469225457000,3.006456787109375,0.006364999804645777,-0.020289000123739243,-0.01474700029939413
1784194469235541000,3.016541015625,-0.005716000217944384,-0.020200999453663826,-0.017013000324368477
1784194469245625000,3.026625,-0.008175999857485294,-0.012968000024557114,-0.021807000041007996
1784194469255709000,3.036708984375,-0.008124000392854214,-0.013005999848246574,-0.012121999636292458
1784194469265793000,3.04679296875,-0.012861999683082104,-0.022623000666499138,-0.036035001277923584
1784194469275877000,3.056877197265625,-0.020002000033855438,-0.01786400005221367,-0.016700999811291695
1784194469285961200,3.066961181640625,-0.0008500000112690032,-0.013073000125586987,-0.02374199964106083
1784194469296045300,3.07704541015625,-0.024685999378561974,-0.008365999907255173,-0.018851999193429947
1784194469306129400,3.08712939453125,-0.0317390002310276,-0.0012860000133514404,-0.030750999227166176
1784194469316213200,3.097213134765625,-0.014791999943554401,-0.0014309999532997608,-0.018696000799536705
1784194469326297300,3.10729736328125,-0.0338280014693737,-0.003918999806046486,-0.01627800054848194
1784194469336381400,3.11738134765625,-0.026458999142050743,-0.0016690000193193555,-0.020990999415516853
1784194469346465500,3.127465576171875,-0.014407999813556671,0.0030539999715983868,-0.006521999835968018
1784194469356549400,3.13754931640625,-0.03351199999451637,0.0030159999150782824,-0.0041160001419484615
1784194469366633500,3.147633544921875,-0.023814000189304352,0.014891000464558601,-0.004182999953627586
1784194469376717600,3.157717529296875,-0.01651199907064438,0.012400000356137753,-0.004333999939262867
1784194469386801700,3.1678017578125,-0.018820999190211296,0.02191000059247017,0.0027799999807029963
1784194469396885500,3.177885498046875,-0.013911999762058258,0.01941699907183647,0.024133000522851944
1784194469406969600,3.187969482421875,-0.01621199958026409,0.012156999669969082,0.0024029999040067196
1784194469417053700,3.1980537109375,-0.011424999684095383,0.014551999978721142,0.016658000648021698
1784194469427137800,3.2081376953125,-0.004170999862253666,0.009705999866127968,0.026100000366568565
1784194469437221600,3.2182216796875,-0.008933000266551971,0.004891999997198582,0.028300000354647636
1784194469447305700,3.2283056640625,-0.004197999835014343,0.014506000094115734,0.02561499923467636
1784194469457389800,3.238389892578125,-0.006548999808728695,0.00010599999950500205,0.020718000829219818
1784194469467473700,3.2484736328125,-0.006624999921768904,0.00016399999731220305,0.03971099853515625
1784194469477557800,3.258557861328125,0.00535399978980422,-0.007025999948382378,0.03233100101351738
1784194469487641900,3.268641845703125,0.0028979999478906393,-0.009374000132083893,0.03936300054192543
1784194469497726000,3.278725830078125,-0.0019490000559017062,-0.004542999900877476,0.024721000343561172
1784194469507810000,3.28881005859375,-0.0043680001981556416,-0.016495000571012497,0.02237199991941452
1784194469517894000,3.298893798828125,-0.00202700006775558,-0.011664999648928642,0.02954999916255474
1784194469527978000,3.30897802734375,0.0028810000512748957,-0.016548000276088715,0.010328000411391258
1784194469538062000,3.31906201171875,-0.009170000441372395,-0.02366800047457218,0.003134000115096569
1784194469548146000,3.32914599609375,0.007534000091254711,-0.009259000420570374,0.0031689999159425497
1784194469558230000,3.33922998046875,0.005148000083863735,-0.026024000719189644,-0.008701999671757221
1784194469568314000,3.349314208984375,-0.018908999860286713,-0.018748000264167786,-0.0038040000945329666
1784194469578398200,3.359398193359375,0.007342000026255846,-0.011497999541461468,-0.02048500068485737
1784194469588482300,3.369482421875,0.004867999814450741,-0.011432000435888767,-0.0059369998052716255
1784194469598566100,3.379566162109375,-0.009568000212311745,-0.008980999700725079,-0.017816999927163124
1784194469608650200,3.389650146484375,-0.0048699998296797276,-0.004118000157177448,-0.0320810005068779
1784194469618734300,3.399734375,0.007089000195264816,-0.0017140000127255917,-0.019936999306082726
1784194469628818400,3.409818359375,-0.0024530000519007444,-0.0017379999626427889,-0.03166399896144867
1784194469638902500,3.419902587890625,-0.012040999718010426,-0.0017239999724552035,-0.03380599990487099
1784194469648986400,3.429986328125,0.004827000200748444,0.005375999957323074,-0.0384100005030632
1784194469659070500,3.440070556640625,-0.014260999858379364,0.012512000277638435,-0.0261439997702837
1784194469669154600,3.450154541015625,-0.007002000231295824,0.0052720000967383385,-0.02353299967944622
1784194469679238700,3.46023876953125,-0.0021860001143068075,0.007648000027984381,-0.030513999983668327
1784194469689322800,3.47032275390625,-0.016536999493837357,0.002850000048056245,-0.015904000028967857
1784194469699406800,3.48040673828125,-0.01408500038087368,0.012382999993860722,-0.020555999130010605
1784194469709490700,3.49049072265625,-0.0068259998224675655,0.007536000106483698,-0.02524399943649769
1784194469719574800,3.50057470703125,-0.016371000558137894,0.012299999594688416,-0.005960999988019466
1784194469729659000,3.510658935546875,-0.011498999781906605,0.005051999818533659,-0.017923999577760696
1784194469739743000,3.520742919921875,-0.004271999932825565,-0.0021619999315589666,-0.01065799966454506
1784194469749826800,3.530826904296875,-0.01385900005698204,-0.004550999961793423,-0.001108999946154654
1784194469759911000,3.540910888671875,-0.013833999633789062,-0.004567999858409166,-0.0010649999603629112
1784194469769995000,3.5509951171875,-0.006630000192672014,-0.004585999995470047,0.017999999225139618
1784194469780079000,3.5610791015625,-0.0017659999430179596,-0.009436000138521194,0.01067500002682209
1784194469790163200,3.5711630859375,-0.016087999567389488,-0.011865999549627304,0.03219199925661087
1784194469800247000,3.5812470703125,-0.016081999987363815,-0.009482000023126602,0.01744700036942959
1784194469810331100,3.5913310546875,0.0030869999900460243,-0.0071000000461936,0.01739099994301796
1784194469820415200,3.601415283203125,-0.0016700000269338489,-0.00712500000372529,0.026829000562429428
1784194469830499300,3.611499267578125,-0.0064929998479783535,-0.007102999836206436,0.024236999452114105
1784194469840583200,3.621583251953125,-0.011296000331640244,-0.014275000430643559,0.0313199982047081
1784194469850667300,3.631667236328125,-0.008921000175178051,-0.011866999790072441,0.023994000628590584
1784194469860751400,3.64175146484375,-0.016124999150633812,-0.004668999928981066,0.01679600030183792
1784194469870835500,3.65183544921875,0.0006649999995715916,0.00009300000237999484,0.021532999351620674
1784194469880919600,3.66191943359375,0.0006440000142902136,-0.004676999989897013,0.014349999837577343
1784194469891003400,3.67200341796875,-0.006490000057965517,-0.011900000274181366,0.016690000891685486
1784194469901087500,3.68208740234375,-0.006519000045955181,0.00009300000237999484,0.007062000222504139
1784194469911171600,3.692171630859375,0.007935999892652035,0.007205999922007322,-0.007294000126421452
1784194469921255700,3.702255615234375,0.0007280000136233866,0.009620999917387962,0.0024449999909847975
1784194469931339500,3.712339599609375,0.0031320000998675823,0.0024319998919963837,-0.011881999671459198
1784194469941423600,3.722423583984375,0.007981999777257442,-0.000007000000096013537,-0.006965999957174063
1784194469951507700,3.7325078125,-0.008825000375509262,0.009607999585568905,-0.009197999723255634
1784194469961591800,3.742591796875,0.010374000295996666,0.002391000045463443,-0.0280930008739233
1784194469971675600,3.752675537109375,0.0031419999431818724,0.000039999998989515007,-0.02292799949645996
1784194469981759700,3.762759765625,-0.013643999584019184,-0.0023240000009536743,-0.027435999363660812
1784194469991843800,3.77284375,-0.0039530000649392605,0.0023799999617040157,-0.024815000593662262
1784194470001928000,3.782927978515625,-0.0015539999585598707,-0.007199000101536512,-0.03418299928307533
1784194470012012000,3.793011962890625,-0.015951000154018402,0.007195000071078539,-0.03630800172686577
1784194470022096000,3.803095947265625,-0.01588200032711029,-0.0024309998843818903,0.007133999839425087
1784194470032180000,3.813179931640625,-0.05175799876451492,-0.07428400218486786,-0.04298600181937218
1784194470042264000,3.82326416015625,0.0010319999419152737,0.04293299838900566,-0.019385000690817833
1784194470052348200,3.83334814453125,0.04407399892807007,-0.016871999949216843,-0.054747000336647034
1784194470062432300,3.843432373046875,-0.11847499758005142,-0.09607899934053421,0.0818220004439354
1784194470072516000,3.85351611328125,0.015332999639213085,0.059741001576185226,-0.09603799879550934
1784194470082600200,3.86360009765625,0.09948799759149551,-0.04826800152659416,0.057906001806259155
1784194470092684300,3.873684326171875,-0.14494599401950836,-0.03852200135588646,-0.055163998156785965
1784194470102768000,3.88376806640625,0.032248999923467636,0.02850399911403656,0.13439099490642548
1784194470112852200,3.893852294921875,0.04440699890255928,-0.02672100067138672,-0.1296990066766739
1784194470122936300,3.903936279296875,-0.04188600182533264,-0.00508299982175231,0.08395799994468689
1784194470133020200,3.914020263671875,-0.02037700079381466,0.004517999943345785,0.06208200007677078
1784194470143104300,3.924104248046875,0.041861001402139664,-0.0050559998489916325,-0.02698799967765808
1784194470153188400,3.934188232421875,0.041832998394966125,0.04046199843287468,0.03810599818825722
1784194470163272400,3.9442724609375,-0.06101100146770477,-0.002724000019952655,-0.007803000044077635
1784194470173356300,3.954356201171875,0.008382000029087067,0.02364099957048893,0.13095200061798096
1784194470183440400,3.9644404296875,0.10664500296115875,0.03791699931025505,-0.08995600044727325
1784194470193524500,3.9745244140625,-0.09196899831295013,0.01629599928855896,0.07578600198030472
1784194470203608600,3.984608642578125,0.00368899991735816,0.030741000548005104,-0.029898999258875847
1784194470213692700,3.994692626953125,0.1212339997291565,0.025776000693440437,0.09244299679994583
1784194470223776500,4.004776611328125,-0.07508599758148193,0.00661400007084012,-0.03004400059580803
1784194470233860600,4.014860595703125,-0.015345999971032143,0.009100999683141708,-0.05127999931573868
1784194470243944700,4.02494482421875,0.0854479968547821,0.0017389999702572823,0.07592300325632095
1784194470254028800,4.03502880859375,-0.031883999705314636,-0.026986999437212944,-0.04654200002551079
1784194470264112600,4.045112548828125,-0.03681199997663498,-0.00292599992826581,-0.012590000405907631
1784194470274196700,4.05519677734375,0.04223199933767319,-0.02928899973630905,-0.036479998379945755
1784194470284280800,4.06528076171875,-0.02490900084376335,-0.03878000006079674,-0.024309000000357628
1784194470294365000,4.075364990234375,-0.04179000109434128,-0.036288000643253326,0.009418999776244164
1784194470304449000,4.085448974609375,-0.029788000509142876,-0.045892998576164246,-0.08889299631118774
1784194470314532900,4.095532958984375,0.006085999775677919,-0.036277998238801956,-0.02371099963784218
1784194470324617000,4.105616943359375,-0.03460000082850456,-0.04346900060772896,-0.025983000174164772
1784194470334701000,4.115701171875,-0.07548300176858902,-0.03614199906587601,-0.03542099893093109
1784194470344785200,4.12578515625,0.039441999047994614,-0.02177399955689907,-0.05916199833154678
1784194470354869000,4.135868896484375,-0.02519099973142147,-0.019387999549508095,-0.03502500057220459
1784194470364953000,4.145953125,-0.06834699958562851,-0.014547999948263168,-0.018137000501155853
1784194470375037200,4.156037109375,0.03951499983668327,0.011691000312566757,-0.01565299928188324
1784194470385121300,4.166121337890625,-0.001075000036507845,0.0044189998880028725,-0.03720000013709068
1784194470395205400,4.176205322265625,-0.032196998596191406,0.025969000533223152,-0.017842000350356102
1784194470405289500,4.18628955078125,0.03263299912214279,0.028216000646352768,0.020481999963521957
1784194470415373600,4.19637353515625,0.018290000036358833,0.03298399969935417,-0.010803000070154667
1784194470425457400,4.20645751953125,-0.0006820000126026571,0.049605000764131546,-0.0011909999884665012
1784194470435541500,4.21654150390625,-0.014914000406861305,0.04231400042772293,0.0011119999689981341
1784194470445625600,4.22662548828125,0.021167999133467674,0.04457399994134903,0.017833000048995018
1784194470455709700,4.236709716796875,0.011789999902248383,0.03483499959111214,0.031904999166727066
1784194470465793800,4.246793701171875,-0.04083799943327904,0.02043299935758114,0.012519000098109245
1784194470475877600,4.256877685546875,0.01905200071632862,0.01561100035905838,0.024234000593423843
1784194470485961700,4.266961669921875,0.011986999772489071,0.0011490000179037452,0.052650999277830124
1784194470496045800,4.2770458984375,-0.050324998795986176,-0.01077600009739399,0.04025299847126007
1784194470506130000,4.2871298828125,-0.004776999820023775,-0.010828999802470207,0.039840999990701675
1784194470516214000,4.297214111328125,0.004765000194311142,-0.022777000442147255,0.03956099972128868
1784194470526298000,4.307298095703125,-0.057509999722242355,-0.02994300052523613,0.05118799954652786
1784194470536382200,4.31738232421875,-0.028832999989390373,-0.03469499945640564,0.04606800153851509
1784194470546466300,4.32746630859375,0.007062999997287989,-0.041871000081300735,0.033713001757860184
1784194470556550100,4.337550048828125,-0.01705300062894821,-0.04412899911403656,0.040738001465797424
1784194470566634000,4.347634033203125,-0.03167400136590004,-0.034356001764535904,0.03568299859762192
1784194470576718000,4.357718017578125,0.00894199963659048,-0.046261999756097794,0.045173000544309616
1784194470586802200,4.36780224609375,0.006351999938488007,-0.0341389998793602,0.020999999716877937
1784194470596886300,4.37788623046875,-0.022526999935507774,-0.024445999413728714,0.013821999542415142
1784194470606970400,4.387970458984375,0.020478999242186546,-0.02676999941468239,0.03542099893093109
1784194470617054200,4.39805419921875,0.022777000442147255,-0.0027489999774843454,0.009145000018179417
1784194470627138300,4.40813818359375,-0.008379999548196793,-0.007511000148952007,-0.00507699977606535
1784194470637222400,4.418222412109375,0.02504800073802471,0.0021389999892562628,-0.00484299985691905
1784194470647306500,4.428306396484375,0.039388999342918396,0.006949999835342169,-0.014189999550580978
1784194470657390300,4.438390380859375,-0.013264000415802002,0.009333999827504158,-0.02102000080049038
1784194470667474400,4.448474365234375,0.017924999818205833,0.014074999839067459,-0.023163000121712685
1784194470677558500,4.45855859375,0.027543000876903534,0.014046999625861645,-0.03726600110530853
1784194470687642600,4.468642578125,-0.005969999823719263,0.00926200021058321,-0.04176900163292885
1784194470697726700,4.478726806640625,-0.013034000061452389,0.018750999122858047,-0.05581799894571304
1784194470707810600,4.488810546875,-0.003281000070273876,0.0018579999450594187,-0.04098400101065636
1784194470717894700,4.498894775390625,-0.007984000258147717,0.008980000391602516,-0.05734900012612343
1784194470727978800,4.508978759765625,-0.022223999723792076,0.01128000020980835,-0.049835000187158585
1784194470738062800,4.519062744140625,-0.022120000794529915,0.004017999861389399,-0.06397999823093414
1784194470748146700,4.529146728515625,-0.002882000058889389,-0.0008299999753944576,-0.05642300099134445
1784194470758230800,4.539230712890625,-0.026832999661564827,0.0015739999944344163,-0.04419099912047386
1784194470768315000,4.54931494140625,-0.02195099927484989,-0.008073000237345695,-0.053582001477479935
1784194470778399000,4.55939892578125,-0.009936000220477581,-0.005710999947041273,-0.036577001214027405
1784194470788483000,4.569483154296875,-0.024296000599861145,-0.012892999686300755,-0.05080600082874298
1784194470798567000,4.57956689453125,-0.03383399918675423,-0.015316000208258629,-0.04339500144124031
1784194470808651000,4.589651123046875,-0.0026420000940561295,-0.010576999746263027,-0.01687600091099739
1784194470818735000,4.599735107421875,-0.009864999912679195,-0.0129399998113513,-0.021734999492764473
1784194470828819200,4.609819091796875,-0.017148999497294426,-0.008071999996900558,-0.005014999769628048
1784194470838903300,4.6199033203125,0.0019440000178292394,-0.017602000385522842,0.002104999963194132
1784194470848987400,4.6299873046875,0.004174999892711639,-0.012690000236034393,0.00901500042527914
1784194470859071200,4.6400712890625,0.0064940000884234905,-0.007846999913454056,0.027935000136494637
1784194470869155300,4.6501552734375,-0.003152000019326806,-0.005404999945312738,0.020315999165177345
1784194470879239400,4.660239501953125,0.018288999795913696,-0.007720000110566616,0.04154200106859207
1784194470889323500,4.670323486328125,0.008763999678194523,-0.014948000200092793,0.043561000376939774
1784194470899407400,4.680407470703125,-0.008011999540030956,-0.012544999830424786,0.04796300083398819
1784194470909491500,4.690491455078125,0.020687999203801155,-0.0029539999086409807,0.06424299627542496
1784194470919575600,4.700575439453125,0.013478999957442284,-0.012516000308096409,0.06620199978351593
1784194470929659600,4.71065966796875,-0.012884999625384808,-0.005317999981343746,0.056178998202085495
1784194470939743700,4.72074365234375,-0.008081999607384205,-0.007728000171482563,0.06306099891662598
1784194470949827600,4.73082763671875,-0.005700999870896339,-0.002933999989181757,0.05792799964547157
1784194470959911700,4.74091162109375,-0.007938000373542309,0.0424249991774559,0.03839699923992157
1784194470969995800,4.750995849609375,-0.024306999519467354,-0.1230819970369339,-0.02622300013899803
1784194470980079900,4.761079833984375,-0.13945899903774261,0.10453599691390991,-0.10129600018262863
1784194470990163700,4.771163818359375,0.11665699630975723,0.05191799998283386,0.18386100232601166
1784194471000247800,4.781247802734375,0.09066800028085709,-0.087227001786232,0.47798600792884827
1784194471010332000,4.791331787109375,-0.14164400100708008,-0.027344999834895134,-0.1634870022535324
1784194471020416000,4.801416015625,-0.10552000254392624,0.051511000841856,-0.33025598526000977
1784194471030500000,4.8115,0.04315200075507164,-0.010894999839365482,0.1983110010623932
1784194471040584000,4.821583984375,0.00494900019839406,-0.022962000221014023,0.19967499375343323
1784194471050668000,4.83166796875,-0.10306999832391739,0.09216699749231339,-0.05733200162649155
1784194471060752100,4.841752197265625,0.12580299377441406,-0.1531350016593933,-0.7714729905128479
1784194471070836200,4.851836181640625,-0.46322301030158997,0.1481119990348816,0.30903398990631104
1784194471080920000,4.861920166015625,0.49876999855041504,-0.08089400082826614,0.2915070056915283
1784194471091004200,4.872004150390625,-0.10110499709844589,0.09970799833536148,0.2672879993915558
1784194471101088000,4.882087890625,-0.11248300224542618,-0.05399800091981888,-0.48523399233818054
1784194471111172000,4.892172119140625,-0.000012000000424450263,-0.022791000083088875,-0.18594199419021606
1784194471121256400,4.90225634765625,0.04539100080728531,0.03474399819970131,0.12115199863910675
1784194471131340300,4.91234033203125,0.06446000188589096,-0.017858000472187996,0.1501230001449585
1784194471141424400,4.92242431640625,-0.050374001264572144,-0.020329000428318977,-0.24081100523471832
1784194471151508500,4.932508544921875,-0.012272000312805176,0.010974000208079815,-0.23969100415706635
1784194471161592300,4.94259228515625,0.028334999457001686,-0.02245200052857399,0.21168600022792816
1784194471181760500,4.962760498046875,-0.05080899968743324,-0.012782000005245209,-0.22017599642276764
1784194471191844600,4.9728447265625,-0.012601999565958977,-0.022267000749707222,-0.08771900087594986
1784194471201928700,4.9829287109375,0.056710999459028244,-0.0293550007045269,0.15184800326824188
1784194471212012800,4.9930126953125,0.013609999790787697,-0.04133699834346771,0.03129899874329567
1784194471222097000,5.003096923828125,-0.06551499664783478,-0.012517999857664108,-0.1893399953842163
1784194471232180700,5.0131806640625,-0.005621000193059444,-0.01971999928355217,0.0076489998027682304
1784194471242264800,5.023264892578125,0.039806999266147614,-0.02207300066947937,0.12946300208568573
1784194471252349000,5.033348876953125,-0.005760999862104654,-0.012443000450730324,0.009138000197708607
1784194471262433000,5.04343310546875,-0.041544001549482346,0.0018149999668821692,-0.06531500071287155
1784194471272517000,5.05351708984375,-0.027110999450087547,0.006552999839186668,0.044989001005887985
1784194471282601000,5.06360107421875,0.00419900007545948,0.01358299981802702,0.11404299736022949
1784194471292685300,5.073685302734375,-0.019572999328374863,0.02301800064742565,-0.0015439999988302588
1784194471302769200,5.08376904296875,-0.05527300015091896,0.013275999575853348,-0.02542399987578392
1784194471312853200,5.093853271484375,-0.004922000225633383,0.02997799962759018,0.08963000029325485
1784194471322937300,5.103937255859375,0.01679600030183792,0.02744399942457676,0.08685299754142761
1784194471333021400,5.114021484375,-0.0285279992967844,0.02252200059592724,0.02676199935376644
1784194471343105300,5.124105224609375,-0.016313999891281128,0.022328000515699387,-0.011614000424742699
1784194471353189400,5.134189453125,-0.00885200034826994,0.04844500124454498,0.06269499659538269
1784194471363273500,5.1442734375,0.0297860000282526,-0.011668999679386616,0.05318199843168259
1784194471373357600,5.154357666015625,-0.08026999980211258,-0.028488000854849815,-0.004348999820649624
1784194471383441700,5.164441650390625,-0.1589069962501526,-0.1221579983830452,-0.2558850049972534
1784194471393525500,5.174525390625,0.17561599612236023,-0.0761139988899231,0.31105199456214905
1784194471403609600,5.184609619140625,-0.039737001061439514,0.11767599731683731,0.1310569941997528
1784194471413693700,5.194693603515625,-0.044523999094963074,0.03627600148320198,-0.21805700659751892
1784194471423777500,5.204777587890625,0.001234999974258244,-0.0142000000923872,0.07014500349760056
1784194471433861600,5.214861572265625,0.0609389990568161,-0.0739390030503273,0.053109001368284225
1784194471443945700,5.22494580078125,-0.06379599869251251,0.029193999245762825,0.04083799943327904
1784194471454029800,5.23502978515625,0.027255000546574593,-0.054655998945236206,-0.06428500264883041
1784194471464113700,5.24511376953125,-0.02331399917602539,-0.011326000094413757,-0.03278300166130066
1784194471474197800,5.25519775390625,-0.01130599994212389,-0.040084000676870346,0.08462800085544586
1784194471484281900,5.26528173828125,0.00047900000936351717,0.012728000059723854,-0.01140700001269579
1784194471494366000,5.275365966796875,0.012636000290513039,-0.032903000712394714,-0.05897299945354462
1784194471504450000,5.285449951171875,-0.05225599929690361,0.000818000000435859,-0.027441000565886497
1784194471514534100,5.2955341796875,0.0029170000925660133,-0.016018999740481377,0.011158999986946583
1784194471524618000,5.305617919921875,0.014809000305831432,0.007985999807715416,0.011270999908447266
1784194471534702000,5.3157021484375,-0.02090900018811226,-0.006531999912112951,-0.08691000193357468
1784194471544786200,5.3257861328125,-0.035312000662088394,0.0030799999367445707,-0.019353000447154045
1784194471554870300,5.335870361328125,0.015092999674379826,0.002983999904245138,0.00955200009047985
1784194471564954400,5.345954345703125,0.0008229999803006649,0.012482999823987484,-0.028845999389886856
1784194471575038200,5.3560380859375,-0.02772499993443489,0.01473500020802021,-0.05990299955010414
1784194471585122300,5.366122314453125,0.0011399999493733048,0.0050559998489916325,-0.023724999278783798
1784194471595206400,5.376206298828125,0.01549999974668026,0.0050650001503527164,0.00989300012588501
1784194471605290500,5.38629052734375,-0.008425000123679638,0.0026539999525994062,-0.038019001483917236
1784194471615374300,5.396374267578125,-0.02524299919605255,0.005098999943584204,-0.03782700002193451
1784194471625458400,5.40645849609375,0.013159000314772129,0.0026310000102967024,0.0006060000159777701
1784194471635542500,5.41654248046875,0.01309600006788969,0.005073999986052513,-0.0065460000187158585
1784194471645626600,5.426626708984375,-0.010815000161528587,-0.011706000193953514,-0.023166000843048096
1784194471655710500,5.43671044921875,0.008325999602675438,-0.002119000069797039,-0.006372000090777874
1784194471665794600,5.446794677734375,0.00826799962669611,-0.004466999787837267,0.005588999949395657
1784194471675878700,5.456878662109375,0.09043599665164948,-0.17505300045013428,-0.04672300070524216
1784194471685962800,5.466962646484375,-0.19010700285434723,0.13891400396823883,0.11095699667930603
1784194471696046800,5.477046875,0.15571600198745728,0.01835699938237667,-0.16287599503993988
1784194471706130700,5.487130615234375,-0.06485199928283691,-0.019689999520778656,0.24785000085830688
1784194471716214800,5.49721484375,0.004821000155061483,-0.05342800170183182,-0.17056800425052643
1784194471726299000,5.507298828125,-0.14406000077724457,-0.024330999702215195,0.07969199866056442
1784194471736383000,5.517383056640625,0.41639700531959534,0.5668439865112305,-0.1899919956922531
1784194471746467000,5.527467041015625,-0.40115201473236084,-0.6072720289230347,0.36787599325180054
1784194471756551000,5.537551025390625,-0.07929900288581848,-0.08910900354385376,-0.0499580018222332
1784194471766635000,5.547635009765625,0.4493269920349121,0.8066859841346741,-0.21904699504375458
1784194471776719000,5.557718994140625,-0.25504401326179504,-1.1340689659118652,-0.13629500567913055
1784194471786803200,5.56780322265625,0.012116000056266785,-0.07079199701547623,0.6190249919891357
1784194471796887300,5.57788720703125,0.1914539933204651,0.3794490098953247,-0.4447920024394989
1784194471806971100,5.58797119140625,-0.28120800852775574,0.2275570034980774,0.3000349998474121
1784194471817055200,5.59805517578125,-0.062233999371528625,-0.1851319968700409,-0.11334399878978729
1784194471827139300,5.608139404296875,0.035666000097990036,0.023382000625133514,0.19164299964904785
1784194471837223400,5.618223388671875,0.05984500050544739,0.04712200164794922,-0.19005799293518066
1784194471847307300,5.628307373046875,-0.09587600082159042,0.011304999701678753,0.036361001431941986
1784194471857391400,5.638391357421875,0.05509600043296814,-0.02711700089275837,0.05511000007390976
1784194471867475500,5.648475341796875,0.004581000190228224,0.049678001552820206,-0.050547998398542404
1784194471877559600,5.6585595703125,-0.03831100091338158,0.027979999780654907,-0.01892700046300888
1784194471887643600,5.6686435546875,-0.007218000013381243,-0.01269499957561493,-0.0069679999724030495
1784194471897727700,5.678727783203125,0.0144640002399683,-0.0008299999753944576,0.014724000357091427
1784194471907811600,5.6888115234375,-0.028707999736070633,0.0064119999296963215,-0.016394000500440598
1784194471917895700,5.698895751953125,-0.026034999638795853,-0.0057749999687075615,-0.01386099960654974
1784194471927979800,5.708979736328125,0.007466000039130449,-0.020124999806284904,0.005332999862730503
1784194471938064000,5.71906396484375,-0.00940299965441227,-0.005673999898135662,0.005251000169664621
1784194471948147700,5.729147705078125,-0.007007999811321497,-0.005671999882906675,-0.016210999339818954
1784194471958231800,5.739231689453125,-0.026172000914812088,0.0015180000336840749,-0.023256000131368637
1784194471968316000,5.74931591796875,-0.0022239999379962683,-0.020030999556183815,0.0008670000243000686
1784194471978400000,5.75939990234375,-0.009394999593496323,-0.005675000138580799,-0.011008000001311302
1784194471988484000,5.769484130859375,-0.014100000262260437,-0.010526999831199646,-0.008444000035524368
1784194471998568000,5.77956787109375,-0.016488999128341675,0.003836000105366111,-0.03229700028896332
1784194472008652000,5.789652099609375,0.002724000019952655,-0.008175999857485294,0.008706999942660332
1784194472018736000,5.799736083984375,0.00035600000410340726,-0.008197999559342861,-0.012860000133514404
1784194472028820200,5.8098203125,-0.021317999809980392,-0.0057020001113414764,-0.015138000249862671
1784194472038904000,5.819904052734375,0.005063999909907579,-0.0057390001602470875,-0.017549000680446625
1784194472048988200,5.82998828125,0.007402000017464161,-0.010480999946594238,-0.003186000045388937
1784194472059072300,5.840072265625,-0.0093560004606843,-0.0033009999897331,-0.010462000034749508
1784194472069156400,5.85015625,0.01219900045543909,0.011057999916374683,-0.029662000015378
1784194472079240400,5.860240478515625,-0.0021979999728500843,-0.005675999913364649,0.006322000175714493
1784194472089324300,5.87032421875,-0.0022279999684542418,-0.003261999925598502,-0.010672000236809254
1784194472099408400,5.880408447265625,0.004931999836117029,-0.005640000104904175,0.0013170000165700912
1784194472109492500,5.890492431640625,-0.004699999932199717,-0.0032029999420046806,-0.0036750000435858965
1784194472119576600,5.90057666015625,0.00007699999696342275,0.0015940000303089619,-0.008488000370562077
1784194472129660700,5.91066064453125,0.002457000082358718,0.0016029999824240804,0.008275999687612057
1784194472139744500,5.92074462890625,-0.0023529999889433384,-0.0031649998854845762,-0.003647000063210726
1784194472149828600,5.93082861328125,-0.01673799939453602,-0.007938000373542309,0.005903000012040138
1784194472159912700,5.94091259765625,-0.007141999900341034,-0.007954999804496765,0.003441999899223447
1784194472169996800,5.950996826171875,-0.00005700000110664405,-0.003089000005275011,0.01309799961745739
1784194472180081000,5.961080810546875,-0.004873999860137701,-0.003066000062972307,0.005867000203579664
1784194472190165000,5.9711650390625,-0.02172599919140339,0.0017930000321939588,0.010569999925792217
1784194472200248800,5.981248779296875,-0.004896000027656555,-0.007838999852538109,0.02496900036931038
1784194472210333000,5.9913330078125,-0.00483699981123209,-0.0007050000131130219,0.0008219999726861715
1784194472220417000,6.0014169921875,-0.012105000205338001,-0.0030330000445246696,0.01992199942469597
1784194472230501000,6.011501220703125,-0.002592999953776598,-0.002982999896630645,0.01256600022315979
1784194472240585000,6.0215849609375,-0.012190000154078007,-0.0029700000304728746,0.029280999675393105
1784194472250669000,6.0316689453125,-0.01448300015181303,-0.015022999607026577,-0.0019920000340789557
1784194472260753200,6.041753173828125,-0.01928200013935566,-0.01980300061404705,0.014814999885857105
1784194472270837200,6.051837158203125,-0.01928899995982647,-0.01979999989271164,0.00750999990850687
1784194472280921300,6.06192138671875,-0.002615999896079302,0.00899800006300211,-0.006947999820113182
1784194472291005200,6.072005126953125,-0.026621999219059944,-0.010103999637067318,0.0027050001081079245
1784194472301089300,6.08208935546875,-0.026652000844478607,-0.0052919997833669186,-0.004521999973803759
1784194472311173400,6.09217333984375,-0.0076790000312030315,0.00442600017413497,0.024205999448895454
1784194472321257500,6.102257568359375,-0.0030320000369101763,-0.007431999780237675,-0.021317999809980392
1784194472331341600,6.112341552734375,-0.03443299978971481,-0.016787000000476837,0.007811000104993582
1784194472341425400,6.12242529296875,0.039684999734163284,-0.03346399962902069,-0.03275400027632713
1784194472351509500,6.132509521484375,0.015716999769210815,0.0647210031747818,-0.05406099930405617
1784194472361593600,6.142593505859375,-0.027173999696969986,0.05977800115942955,0.03008599951863289
1784194472371677700,6.152677734375,-0.047958001494407654,-0.20179200172424316,0.056331001222133636
1784194472381761500,6.162761474609375,-0.6707540154457092,0.3323430120944977,-0.1286430060863495
1784194472391845600,6.172845703125,0.7176520228385925,0.555188000202179,-0.027892999351024628
1784194472401929700,6.1829296875,0.4603930115699768,-0.10372699797153473,-0.08214399963617325
1784194472412013800,6.193013916015625,-2.073828935623169,-0.2507239878177643,0.24005499482154846
1784194472422098000,6.203097900390625,0.8428639769554138,1.28056001663208,-0.4577319920063019
1784194472432181800,6.213181640625,-0.09244699776172638,-0.40590301156044006,0.5286960005760193
1784194472442265900,6.223265869140625,-1.1420730352401733,1.063817024230957,-0.5015900135040283
1784194472452350000,6.233349853515625,-0.2559640109539032,0.07403299957513809,0.1348630040884018
1784194472462434000,6.24343408203125,0.2565250098705292,0.41386398673057556,-0.4210120141506195
1784194472472518100,6.25351806640625,-0.13181200623512268,-0.22682499885559082,0.5121430158615112
1784194472482602000,6.26360205078125,-0.9280920028686523,0.849183976650238,-0.3724829852581024
1784194472492686300,6.273686279296875,0.30161699652671814,-0.1545809954404831,0.6674889922142029
1784194472502770200,6.283770263671875,-0.08980199694633484,0.3376210033893585,-0.9442160129547119
1784194472512854300,6.293854248046875,-1.2564059495925903,0.03411899879574776,0.9469630122184753
1784194472522938400,6.3039384765625,0.14538000524044037,0.3568440079689026,-0.8020399808883667
1784194472533022500,6.3140224609375,-0.17542099952697754,0.060012999922037125,0.2607080042362213
1784194472543106600,6.3241064453125,-0.3685869872570038,0.27247801423072815,0.1371839940547943
1784194472553190400,6.3341904296875,-0.3222540020942688,0.1425189971923828,-0.3209739923477173
1784194472563274500,6.3442744140625,-0.19654600322246552,0.26370900869369507,0.11443699896335602
1784194472573358600,6.354358642578125,-0.37035998702049255,0.07141800224781036,-0.10363200306892395
1784194472583442700,6.364442626953125,-0.4746919870376587,0.22624799609184265,0.17173899710178375
1784194472593526800,6.37452685546875,-0.21934400498867035,0.27051299810409546,-0.11604300141334534
1784194472603611000,6.38461083984375,-0.39039599895477295,0.20963700115680695,-0.11980000138282776
1784194472613694700,6.39469482421875,-0.3434860110282898,0.19416500627994537,0.08629199862480164
1784194472623778800,6.40477880859375,-0.2964789867401123,0.2504419982433319,-0.17715300619602203
1784194472633863000,6.41486279296875,-0.36911800503730774,0.16542600095272064,0.05125899985432625
1784194472643946800,6.42494677734375,-0.4199239909648895,0.22621400654315948,-0.037776000797748566
1784194472654030800,6.43503076171875,-0.360370010137558,0.18149599432945251,-0.10202900320291519
1784194472664115000,6.445114990234375,-0.3896079957485199,0.24228399991989136,0.08276300132274628
1784194472674199000,6.455198974609375,-0.3016510009765625,0.09007500112056732,-0.25722798705101013
1784194472684283100,6.465283203125,-0.3729979991912842,0.29374900460243225,0.23635900020599365
1784194472694367200,6.4753671875,-0.7508469820022583,-0.0058639999479055405,-0.34059399366378784
1784194472704451300,6.485451416015625,0.33265700936317444,0.42938899993896484,0.24139399826526642
1784194472714535200,6.49553515625,-0.7456369996070862,-0.002715999959036708,-0.2154179960489273
1784194472724619300,6.505619384765625,-0.63782799243927,0.2036689966917038,0.031293001025915146
1784194472734703400,6.515703369140625,0.018146000802516937,0.18987399339675903,-0.10487399995326996
1784194472744787500,6.525787353515625,-0.2211800068616867,0.17837999761104584,0.04162200167775154
1784194472754871600,6.53587158203125,-0.8560609817504883,0.2295130044221878,-0.037817999720573425
1784194472764955600,6.54595556640625,-0.07045599818229675,0.2561649978160858,-0.0610009990632534
1784194472775039500,6.55603955078125,-0.10094399750232697,0.18439799547195435,-0.07249899953603745
1784194472785123600,6.56612353515625,-0.7094399929046631,0.21875600516796112,0.004751000087708235
1784194472795207700,6.576207763671875,-0.4957050085067749,0.3121809959411621,-0.12878499925136566
1784194472805291800,6.586291748046875,-0.0519229993224144,0.2833549976348877,0.147474005818367
1784194472815376000,6.5963759765625,-0.5417619943618774,0.2879360020160675,-0.23830799758434296
1784194472825459700,6.606459716796875,-0.6779980063438416,0.3433989882469177,0.1775829941034317
1784194472835543800,6.616543701171875,-0.08955000340938568,0.33532899618148804,-0.26301899552345276
1784194472845628000,6.6266279296875,-0.4885079860687256,0.3974910080432892,0.0978040024638176
1784194472855712000,6.6367119140625,-0.7261919975280762,0.37277600169181824,-0.11725600063800812
1784194472865796000,6.646796142578125,-0.4801509976387024,0.4581350088119507,-0.006149000022560358
1784194472875880000,6.6568798828125,-0.3558329939842224,0.3851909935474396,-0.017054999247193336
1784194472885964000,6.666964111328125,-0.7251039743423462,0.4226680099964142,-0.17207300662994385
1784194472896047900,6.6770478515625,-0.5961499810218811,0.4480220079421997,0.08105500042438507
1784194472906132200,6.68713232421875,-0.349357008934021,0.48971500992774963,-0.2826780080795288
1784194472916216000,6.697216064453125,-0.7060400247573853,0.495635986328125,0.14569100737571716
1784194472926300200,6.707300048828125,-0.7414190173149109,0.5107380151748657,-0.23499900102615356
1784194472936384300,6.71738427734375,-0.5681300163269043,0.5040490031242371,0.054319001734256744
1784194472946468400,6.72746826171875,-0.6201440095901489,0.497529000043869,-0.27300000190734863
1784194472956552400,6.737552490234375,-0.7654020190238953,0.5651659965515137,-0.03150799870491028
1784194472966636300,6.74763623046875,-0.7164430022239685,0.5559579730033875,-0.11649200320243835
1784194472976720400,6.757720458984375,-0.6120539903640747,0.6135259866714478,-0.16549399495124817
1784194472986804500,6.767804443359375,-0.8594719767570496,0.5680559873580933,-0.09653600305318832
1784194472996888600,6.777888671875,-0.8410450220108032,0.6158850193023682,-0.1840679943561554
1784194473006972400,6.787972412109375,-0.7026839852333069,0.6132950186729431,-0.06950300186872482
1784194473017056500,6.798056396484375,-0.8205100297927856,0.6298570036888123,-0.25024300813674927
1784194473027140600,6.808140625,-0.9311890006065369,0.6345009803771973,-0.10933300107717514
1784194473037224700,6.818224609375,-0.7659609913825989,0.6961709856987,-0.2086610049009323
1784194473047308800,6.828308837890625,-0.9145799875259399,0.659853994846344,-0.10615400224924088
1784194473057393000,6.838392822265625,-0.933368980884552,0.6925569772720337,-0.263141006231308
1784194473067476700,6.848476806640625,-0.9571070075035095,0.7014700174331665,-0.14149999618530273
1784194473077560800,6.858560791015625,-0.9325799942016602,0.6909430027008057,-0.23591899871826172
1784194473087645000,6.86864501953125,-0.9894130229949951,0.7546229958534241,-0.19835799932479858
1784194473097729000,6.87872900390625,-1.0675530433654785,0.7319449782371521,-0.2327439934015274
1784194473107813000,6.888813232421875,-1.0303059816360474,0.7663990259170532,-0.25982600450515747
1784194473117897200,6.898897216796875,-1.115149974822998,0.8319879770278931,-0.14079199731349945
1784194473127981000,6.90898095703125,-1.1683379411697388,0.8612750172615051,-0.3096100091934204
1784194473138065200,6.919065185546875,-1.1948750019073486,0.9095159769058228,-0.28369298577308655
1784194473148149200,6.929149169921875,-1.2473440170288086,0.9359319806098938,-0.20280000567436218
1784194473158233300,6.9392333984375,-1.258895993232727,0.9621970057487488,-0.3282819986343384
1784194473168317400,6.9493173828125,-1.2534780502319336,0.976377010345459,-0.20649200677871704
1784194473178401300,6.9594013671875,-1.3052480220794678,0.9544540047645569,-0.31998398900032043
1784194473188485400,6.9694853515625,-1.3498209714889526,0.9708520174026489,-0.28460800647735596
1784194473198569500,6.979569580078125,-1.3247970342636108,0.989549994468689,-0.1870259940624237
1784194473208653600,6.989653564453125,-1.3378009796142578,1.0104479789733887,-0.37021899223327637
1784194473218737700,6.999737548828125,-1.3963500261306763,1.0194569826126099,-0.18387900292873383
1784194473228821800,7.00982177734375,-1.3900530338287354,1.0019819736480713,-0.28350400924682617
1784194473238905900,7.01990576171875,-1.3766260147094727,0.9821869730949402,-0.19353100657463074
1784194473248989700,7.02998974609375,-1.4015159606933594,0.9791659712791443,-0.18068499863147736
1784194473259073800,7.04007373046875,-1.3930310010910034,0.9978129863739014,-0.2782909870147705
1784194473269158000,7.050157958984375,-1.389233946800232,0.9661459922790527,-0.10004200041294098
1784194473279242000,7.060241943359375,-1.409458041191101,0.9680500030517578,-0.26757100224494934
1784194473289326000,7.070326171875,-1.4513829946517944,0.9461609721183777,-0.1206900030374527
1784194473299410200,7.08041015625,-1.3974740505218506,0.9457759857177734,-0.2116529941558838
1784194473309494300,7.090494384765625,-1.3915990591049194,0.9551010131835938,-0.12265100330114365
1784194473319578000,7.100578125,-1.464818000793457,0.9477369785308838,-0.14900599420070648
1784194473329662200,7.110662109375,-1.4326239824295044,0.9523220062255859,-0.18012499809265137
1784194473339746300,7.120746337890625,-1.4319380521774292,0.9069219827651978,-0.1150209978222847
1784194473349830400,7.130830322265625,-1.4050129652023315,0.9094780087471008,-0.1366730034351349
1784194473359914500,7.14091455078125,-1.4333449602127075,0.8978300094604492,-0.10770999640226364
1784194473369998600,7.15099853515625,-1.4019720554351807,0.8791120052337646,-0.18428300321102142
1784194473380082400,7.16108251953125,-1.4210540056228638,0.8605449795722961,-0.06412599980831146
1784194473390166500,7.17116650390625,-1.4331539869308472,0.8708530068397522,-0.18852299451828003
1784194473400250600,7.181250732421875,-1.3807859420776367,0.8837080001831055,-0.09193699806928635
1784194473410334700,7.191334716796875,-1.4266120195388794,0.8439180254936218,-0.12253499776124954
1784194473420418800,7.201418701171875,-1.4607659578323364,0.8474500179290771,-0.12419900298118591
1784194473430502700,7.211502685546875,-1.4088109731674194,0.8343020081520081,-0.12302400171756744
1784194473440587000,7.2215869140625,-1.3808900117874146,0.8451629877090454,-0.1963459998369217
1784194473450670800,7.2316708984375,-1.4418270587921143,0.8418729901313782,-0.015325999818742275
1784194473460755000,7.2417548828125,-1.39730703830719,0.8193429708480835,-0.270920991897583
1784194473470839000,7.251839111328125,-1.3889479637145996,0.828154981136322,0.061452001333236694
1784194473480923100,7.261923095703125,-1.3877849578857422,0.8273730278015137,-0.3306390047073364
1784194473491007200,7.27200732421875,-1.346276044845581,0.8580060005187988,0.02109299972653389
1784194473501091300,7.28209130859375,-1.3284720182418823,0.826213002204895,-0.15036800503730774
1784194473511175400,7.292175537109375,-1.375372052192688,0.8663120269775391,-0.25427499413490295
1784194473521259300,7.30225927734375,-1.396232008934021,0.8372079730033875,0.059344999492168427
1784194473531343400,7.31234326171875,-1.206097960472107,0.8916670083999634,-0.4764550030231476
1784194473541427500,7.322427490234375,-1.2702560424804688,0.8842880129814148,0.1731259971857071
1784194473551511600,7.332511474609375,-1.2478439807891846,0.8646150231361389,-0.5428699851036072
1784194473561595600,7.342595703125,-1.2664560079574585,0.8548300266265869,-0.0440870001912117
1784194473571679700,7.3526796875,-1.196310043334961,0.8161519765853882,-0.3065119981765747
1784194473581763600,7.362763671875,-1.1549559831619263,0.8948609828948975,-0.3048909902572632
1784194473591847700,7.37284765625,-1.2477749586105347,0.8252149820327759,0.013209999538958073
1784194473601931800,7.382931884765625,-1.1080729961395264,0.8678640127182007,-0.626239001750946
1784194473612015900,7.393015869140625,-1.2056889533996582,0.7863140106201172,0.11478500068187714
1784194473622100000,7.403099853515625,-1.1521810293197632,0.8241879940032959,-0.5825030207633972
1784194473632184000,7.41318408203125,-1.1825510263442993,0.8143380284309387,-0.11973799765110016
1784194473642268000,7.423267822265625,-1.1841429471969604,0.7469469904899597,-0.31997400522232056
1784194473652352000,7.43335205078125,-1.1473029851913452,0.8159719705581665,-0.3041970133781433
1784194473662436000,7.44343603515625,-1.1683679819107056,0.7488470077514648,-0.1751050055027008
1784194473672520200,7.453520263671875,-1.0545220375061035,0.7649589776992798,-0.4111599922180176
1784194473682604300,7.463604248046875,-1.3602440357208252,0.7240369915962219,-0.0471699982881546
1784194473692688400,7.4736884765625,-1.1627899408340454,0.7498480081558228,-0.30079400539398193
1784194473702772500,7.4837724609375,-1.0446900129318237,0.7615749835968018,-0.17684300243854523
1784194473712856600,7.493856689453125,-1.0920519828796387,0.6872649788856506,-0.1230349987745285
1784194473722940700,7.503940673828125,-1.1750930547714233,0.7660250067710876,-0.2136629968881607
1784194473733024500,7.5140244140625,-1.2368019819259644,0.6821590065956116,-0.020692000165581703
1784194473743108600,7.524108642578125,-0.9965670108795166,0.7345399856567383,-0.09307099878787994
1784194473753192700,7.534192626953125,-1.1398899555206299,0.693884015083313,-0.004286999814212322
1784194473763276800,7.54427685546875,-1.0583750009536743,0.715599000453949,-0.07939399778842926
1784194473773361000,7.55436083984375,-1.0459179878234863,0.7131519913673401,0.13554799556732178
1784194473783445000,7.564445068359375,-1.168045997619629,0.6703029870986938,-0.024178000167012215
1784194473793529000,7.574529052734375,-1.0359970331192017,0.6846870183944702,0.01760599948465824
1784194473803613000,7.584613037109375,-1.0935120582580566,0.665818989276886,0.1357399970293045
1784194473813697000,7.594697021484375,-1.004930019378662,0.6301479935646057,0.22188399732112885
1784194473823781000,7.604781005859375,-1.0384199619293213,0.7069820165634155,-0.12567900121212006
1784194473833865200,7.614865234375,-1.1488330364227295,0.6619439721107483,0.40421199798583984
1784194473843949300,7.62494921875,-0.9403049945831299,0.6404659748077393,0.02158300019800663
1784194473854033400,7.635033447265625,-1.0393580198287964,0.5455380082130432,0.33324500918388367
1784194473864117500,7.645117431640625,-0.9507079720497131,0.6654459834098816,0.09905599802732468
1784194473874201600,7.65520166015625,-1.1624629497528076,0.6209030151367188,0.1347150057554245
1784194473884285700,7.66528564453125,-0.8349699974060059,0.5424910187721252,0.49543100595474243
1784194473894369500,7.67536962890625,-0.762037992477417,0.6225450038909912,-0.09601599723100662
1784194473904453600,7.68545361328125,-1.0505199432373047,0.5757110118865967,0.5770350098609924
1784194473914537700,7.695537841796875,-1.0563939809799194,0.5814250111579895,0.0089910002425313
1784194473924621800,7.705621826171875,-0.7844820022583008,0.5823950171470642,0.40660399198532104
1784194473934706000,7.715705810546875,-0.8651149868965149,0.5669400095939636,0.14894400537014008
1784194473944789800,7.725789794921875,-0.8479549884796143,0.716933012008667,0.12191399931907654
1784194473954873900,7.735873779296875,-0.7633129954338074,0.5937439799308777,0.5219339728355408
1784194473964958000,7.7459580078125,-0.7988190054893494,0.5617480278015137,-0.07897999882698059
1784194473975042000,7.7560419921875,-0.8751760125160217,0.5562630295753479,0.5639100074768066
1784194473985126100,7.766126220703125,-0.7125089764595032,0.6251689791679382,0.20714199542999268
1784194473995210200,7.776210205078125,-0.554597020149231,0.598343014717102,0.2552439868450165
1784194474005294300,7.78629443359375,-0.7536910176277161,0.5621050000190735,0.3246929943561554
1784194474015378400,7.79637841796875,-0.8377360105514526,0.5042359828948975,0.20669299364089966
1784194474025462500,7.806462646484375,-0.6226779818534851,0.5231069922447205,0.43934398889541626
1784194474035546400,7.81654638671875,-0.522911012172699,0.578091025352478,0.2468090057373047
1784194474045630500,7.82663037109375,-0.5595809817314148,0.527741014957428,0.184921994805336
1784194474055714600,7.836714599609375,-0.7519130110740662,0.46066001057624817,0.3626199960708618
1784194474065798700,7.846798583984375,-0.5801209807395935,0.46765899658203125,0.2351139932870865
1784194474075882800,7.8568828125,-0.5998510122299194,0.5010020136833191,0.3094620108604431
1784194474085966800,7.866966796875,-0.610289990901947,0.4507159888744354,0.34272700548171997
1784194474096051000,7.877051025390625,-0.6228359937667847,0.39546701312065125,0.2488110065460205
1784194474106135000,7.887135009765625,-0.6548740267753601,0.39071500301361084,0.45958399772644043
1784194474116219100,7.89721923828125,-0.5933150053024292,0.4145509898662567,0.13796000182628632
1784194474126303000,7.907302978515625,-0.5968940258026123,0.35491299629211426,0.39267000555992126
1784194474136387000,7.917386962890625,-0.5570639967918396,0.2352209985256195,0.18673700094223022
1784194474146471200,7.92747119140625,-0.7354959845542908,0.26182401180267334,0.2880899906158447
1784194474156555300,7.93755517578125,-0.6125940084457397,0.23595699667930603,0.31530800461769104
1784194474166639400,7.947639404296875,-0.46293699741363525,0.26250898838043213,0.21285000443458557
1784194474176723500,7.957723388671875,-0.6880580186843872,0.17252899706363678,0.4776790142059326
1784194474186807600,7.9678076171875,-0.4455550014972687,0.1682630032300949,0.06339800357818604
1784194474196891600,7.9778916015625,-0.6086490154266357,0.17420199513435364,0.2864449918270111
1784194474206975500,7.9879755859375,-0.4938650131225586,0.1393270045518875,0.3067289888858795
1784194474217059600,7.9980595703125,-0.39630699157714844,0.202891007065773,0.008728999644517899
1784194474227143700,8.008143798828126,-0.42593199014663696,0.19482800364494324,0.3708589971065521
1784194474237227800,8.018227783203125,-0.32378000020980835,0.17949800193309784,-0.023231999948620796
1784194474247312000,8.028311767578124,-0.3945170044898987,0.19562199711799622,0.12111999839544296
1784194474257396000,8.03839599609375,-0.32150599360466003,0.19252200424671173,0.24051499366760254
1784194474267480000,8.04847998046875,-0.23237299919128418,0.2209160029888153,0.033886998891830444
1784194474277564000,8.05856396484375,-0.09754599630832672,0.19892600178718567,0.35261601209640503
1784194474287648000,8.06864794921875,-0.34844401478767395,0.18904000520706177,-0.27125200629234314
1784194474297732000,8.078732177734375,-0.24507400393486023,0.14811700582504272,0.24766799807548523
1784194474307816200,8.088816162109374,-0.06259900331497192,0.16216400265693665,0.16540299355983734
1784194474317900300,8.098900390625,-0.1680629998445511,0.17419999837875366,-0.2179110050201416
1784194474327984400,8.108984375,-0.1248989999294281,0.1765809953212738,0.2674719989299774
1784194474338068500,8.119068359375,-0.11981900036334991,0.1476610004901886,-0.08072900027036667
1784194474348152600,8.129152587890625,-0.15836100280284882,0.15739500522613525,0.10726200044155121
1784194474358236700,8.139236572265625,-0.12470100075006485,0.15491800010204315,0.009115999564528465
1784194474368320800,8.14932080078125,-0.04110199958086014,0.15504199266433716,0.03116700053215027
1784194474378404600,8.159404541015626,-0.09639400243759155,0.09772299975156784,0.07241299748420715
1784194474388488700,8.16948876953125,-0.06308799982070923,0.15770700573921204,-0.1811390072107315
1784194474398572800,8.17957275390625,-0.034999001771211624,0.06234699860215187,0.05774499848484993
1784194474408657000,8.189656982421875,0.01043699961155653,0.15335899591445923,-0.05708099901676178
1784194474418741000,8.199740966796876,-0.09839200228452682,0.18275099992752075,-0.16379299759864807
1784194474428825000,8.2098251953125,0.17209699749946594,0.13252100348472595,0.04083799943327904
1784194474438909200,8.2199091796875,-0.11629199981689453,0.14992499351501465,-0.21771900355815887
1784194474448993000,8.229992919921875,0.045733001083135605,0.09054899960756302,-0.06796500086784363
1784194474459077400,8.240077392578126,0.11455100029706955,0.16992799937725067,-0.22085000574588776
1784194474469161200,8.2501611328125,-0.025561999529600143,0.11801300197839737,-0.15269899368286133
1784194474479245300,8.260245361328124,0.1292240023612976,0.11852200329303741,-0.12083899974822998
1784194474489329400,8.270329345703125,-0.005679999943822622,0.1285959929227829,-0.2951120138168335
1784194474499413500,8.28041357421875,-0.14304299652576447,0.08126399666070938,-0.008949000388383865
1784194474509497600,8.29049755859375,-0.028428999707102776,0.10298699885606766,-0.2942259907722473
1784194474519581700,8.300581787109374,-0.13702499866485596,-0.054496001452207565,-0.0723629966378212
1784194474529665800,8.310665771484375,-0.013683999888598919,0.029982000589370728,-0.05342099815607071
1784194474539750000,8.32075,0.035732001066207886,-0.010196000337600708,-0.11998999863862991
1784194474549833700,8.330833740234375,-0.26917800307273865,-0.04800200089812279,0.00952799990773201
1784194474559918000,8.34091796875,-0.18854999542236328,-0.03077699989080429,-0.2178190052509308
1784194474570002000,8.351001953125,0.11404799669981003,-0.08734700083732605,0.11872799694538116
1784194474580086000,8.3610859375,0.17486299574375153,-0.021862000226974487,-0.06628300249576569
1784194474590170000,8.371170166015625,-0.16716699302196503,-0.03259899839758873,-0.05353499948978424
1784194474600254200,8.381254150390625,-0.012401999905705452,-0.03686999902129173,0.18386900424957275
1784194474610338300,8.39133837890625,-0.04513400048017502,0.01435100007802248,-0.20459799468517303
1784194474620422400,8.40142236328125,0.18775099515914917,0.04413999989628792,0.25623300671577454
1784194474630506500,8.411506591796876,0.011753999628126621,-0.017395000904798508,-0.16354399919509888
1784194474640590600,8.421590576171875,-0.16485199332237244,-0.03783699870109558,0.019332999363541603
1784194474650674700,8.4316748046875,0.10914500057697296,-0.0011269999668002129,0.0074970000423491
1784194474660758500,8.441758544921875,0.05734499916434288,0.0021720000077039003,0.03368699923157692
1784194474670842600,8.451842529296876,-0.11161100119352341,-0.0401110015809536,0.074413001537323
1784194474680926700,8.4619267578125,-0.08899399638175964,0.006165000144392252,-0.16299599409103394
1784194474691010800,8.4720107421875,0.20871500670909882,-0.0000670000008540228,0.18756699562072754
1784194474701095000,8.482094970703125,0.027892999351024628,-0.011300000362098217,-0.18181300163269043
1784194474711179000,8.492178955078124,-0.15807299315929413,-0.034255001693964005,0.04938599839806557
1784194474721263000,8.50226318359375,0.09001599997282028,-0.0337119996547699,-0.022326000034809113
1784194474731347200,8.51234716796875,0.10535000264644623,-0.020880000665783882,-0.09834299981594086
1784194474741431300,8.522431396484375,0.010610000230371952,0.03023100085556507,0.14690999686717987
1784194474751515400,8.532515380859374,0.04084800183773041,0.03794199973344803,-0.1956070065498352
1784194474761599500,8.542599609375,0.04483100026845932,0.012118999846279621,-0.03809899836778641
1784194474771683600,8.55268359375,0.008190999738872051,-0.03531700000166893,-0.006184000056236982
1784194474781767700,8.562767578125,0.09839300066232681,0.015437000431120396,-0.1276479959487915
1784194474791851500,8.5728515625,0.08343300223350525,-0.03445899859070778,-0.08312200009822845
1784194474801935600,8.582935546875,0.14004099369049072,-0.019571000710129738,-0.2212740033864975
1784194474812019700,8.593019775390625,0.18979699909687042,0.016676999628543854,-0.04032900184392929
1784194474822103800,8.603103759765625,-0.004155000206083059,0.10288900136947632,-0.09510800242424011
1784194474832188000,8.61318798828125,-0.03719700127840042,0.03078800067305565,-0.19965499639511108
1784194474842272000,8.62327197265625,0.02584799937903881,-0.08698400110006332,-0.15797699987888336
1784194474852356000,8.633356201171875,0.19501300156116486,-0.009870000183582306,-0.03314400091767311
1784194474862440200,8.643440185546876,0.34856998920440674,0.059365998953580856,-0.13100899755954742
1784194474872524300,8.653524169921875,-0.1443520039319992,0.14538900554180145,-0.36329200863838196
1784194474882608400,8.6636083984375,-0.05691299960017204,-0.003768000053241849,0.155457004904747
1784194474892692200,8.673692138671875,0.18788400292396545,-0.08794199675321579,-0.3438130021095276
1784194474902776300,8.6837763671875,0.28113698959350586,0.08932500332593918,-0.17961899936199188
1784194474912860400,8.6938603515625,0.1781339943408966,0.21385900676250458,-0.20334699749946594
1784194474922944500,8.703944580078126,0.09075099974870682,0.11019299924373627,0.1440570056438446
1784194474933028600,8.714028564453125,-0.03786600008606911,-0.0027600000612437725,-0.47509899735450745
1784194474943112700,8.72411279296875,0.2523519992828369,0.06398899853229523,0.11271200329065323
1784194474953196800,8.73419677734375,0.19063800573349,0.066041000187397,-0.31953001022338867
1784194474963281000,8.744281005859374,-0.017100999131798744,0.15908700227737427,0.0159549992531538
1784194474973365000,8.754364990234375,0.010351999662816525,-0.047502998262643814,-0.042702000588178635
1784194474983449000,8.764448974609374,0.04465499892830849,-0.0551769994199276,-0.21156300604343414
1784194474993533200,8.774533203125,-0.012643000110983849,0.030913999304175377,0.08994600176811218
1784194475003617000,8.784616943359374,0.22963500022888184,0.13114500045776367,-0.46817201375961304
1784194475013701000,8.794701171875,0.005326999817043543,-0.13264599442481995,0.48561200499534607
1784194475023785200,8.80478515625,-0.2911910116672516,-0.061117999255657196,-0.47446200251579285
1784194475033869300,8.814869384765625,0.08986400067806244,0.04161600023508072,-0.033434998244047165
1784194475043953400,8.824953369140625,0.09743800014257431,-0.03765600174665451,0.07967399805784225
1784194475054037500,8.83503759765625,0.01589200086891651,-0.07113400101661682,-0.1695600003004074
1784194475064121600,8.84512158203125,-0.27373799681663513,-0.10709500312805176,0.43071600794792175
1784194475074205700,8.855205810546876,0.16648200154304504,-0.015995999798178673,-0.6939619779586792
1784194475084289800,8.865289794921875,0.106625996530056,-0.023144999518990517,0.8021849989891052
1784194475094374000,8.875373779296876,-0.21249599754810333,0.01789099909365177,-0.6872249841690063
1784194475104457700,8.885457763671875,0.2156600058078766,0.010983999818563461,0.34920400381088257
1784194475114541800,8.895541748046876,0.15554000437259674,-0.04156799986958504,-0.1345590054988861
1784194475124626000,8.9056259765625,-0.06115199998021126,0.05730399861931801,0.10143999755382538
1784194475134710000,8.9157099609375,-0.01808599941432476,-0.002552000107243657,0.3563989996910095
1784194475144794000,8.925794189453125,0.13215699791908264,0.007325999904423952,-0.4802759885787964
1784194475154878200,8.935878173828126,0.06701400130987167,-0.11206100136041641,0.5029190182685852
1784194475164962300,8.94596240234375,-0.0038900000508874655,-0.010680999606847763,-0.3579750061035156
1784194475175046100,8.956046142578124,0.17529499530792236,-0.034380000084638596,0.48345398902893066
1784194475185130200,8.966130126953125,-0.13394899666309357,-0.050951000303030014,-0.1565990000963211
1784194475195214300,8.97621435546875,-0.12258700281381607,-0.13198299705982208,0.09028299897909164
1784194475205298400,8.98629833984375,0.149727001786232,-0.11964999884366989,0.15670199692249298
1784194475215382500,8.996382568359374,0.18911099433898926,-0.04225900024175644,-0.10756900161504745
1784194475225466600,9.006466552734375,-0.21596300601959229,-0.02042599953711033,0.3241659998893738
1784194475235550700,9.01655078125,-0.1349799931049347,-0.022592000663280487,-0.12021099776029587
1784194475245634800,9.026634765625,0.08309400081634521,-0.18789100646972656,0.3145830035209656
1784194475255719000,9.036718994140625,-0.1693270057439804,-0.1824990063905716,-0.03350900113582611
1784194475265803000,9.046802978515625,0.038162000477313995,-0.007224000059068203,0.07530199736356735
1784194475275886800,9.056886962890625,0.24128499627113342,-0.06683100014925003,0.026322999969124794
1784194475285971000,9.066970947265625,0.044463999569416046,-0.06412900239229202,0.10377400368452072
1784194475296055300,9.07705517578125,-0.11625300347805023,-0.04956800118088722,0.19082899391651154
1784194475306139400,9.087139404296876,0.14252899587154388,-0.08081399649381638,-0.05547599866986275
1784194475316223500,9.097223388671875,0.12817999720573425,-0.020941000431776047,-0.05840799957513809
1784194475326307600,9.1073076171875,-0.04937899857759476,0.05352900177240372,0.05281899869441986
1784194475336391700,9.1173916015625,0.2170100063085556,0.034001998603343964,-0.011389000341296196
1784194475346475500,9.1274755859375,0.09801500290632248,-0.12443199753761292,0.05166099965572357
1784194475356559600,9.1375595703125,-0.26270198822021484,-0.14167200028896332,-0.11590199917554855
1784194475366643700,9.147643798828126,-0.01829100027680397,-0.01728300005197525,-0.07678499817848206
1784194475376727800,9.157727783203125,0.47859999537467957,0.037018999457359314,-0.03779799863696098
1784194475386812000,9.16781201171875,-0.28166699409484863,-0.025875000283122063,0.032026998698711395
1784194475396896000,9.17789599609375,-0.24229800701141357,-0.11749300360679626,-0.14299799501895905
1784194475406980000,9.18797998046875,0.3624829947948456,-0.1566469967365265,-0.2570109963417053
1784194475417064200,9.198064208984375,-0.11548200249671936,-0.06616999953985214,0.06291300058364868
1784194475427148300,9.208148193359374,-0.43284499645233154,-0.006953000091016293,-0.16934500634670258
1784194475437232400,9.218232421875,0.3132399916648865,-0.10598500072956085,-0.21845099329948425
1784194475447316500,9.22831640625,0.23484200239181519,-0.19970199465751648,-0.11641599982976913
1784194475457400600,9.238400634765625,-0.3134689927101135,-0.024896999821066856,-0.14957499504089355
1784194475467484700,9.248484619140624,0.015399999916553497,-0.018209999427199364,-0.13633699715137482
1784194475477568500,9.258568603515625,0.2797130048274994,-0.03792300075292587,-0.37288200855255127
1784194475487652600,9.268652587890625,-0.12778699398040771,-0.044783998280763626,0.09594699740409851
1784194475497736700,9.27873681640625,0.4677239954471588,-0.34372198581695557,0.9573659896850586
1784194475507820800,9.28882080078125,-0.16838699579238892,1.0267930030822754,1.4344170093536377
1784194475517902000,9.298902099609375,0.0035019998904317617,-1.0563080310821533,-4.544696807861328
1784194475527989000,9.308989013671875,-0.6756529808044434,1.1682029962539673,-2.520711898803711
1784194475538073000,9.319072998046876,0.880374014377594,-0.22757700085639954,3.563762903213501
1784194475548157200,9.3291572265625,1.0205750465393066,-0.29910799860954285,2.6092820167541504
1784194475558241300,9.3392412109375,-0.3335779905319214,0.2594679892063141,-2.4771649837493896
1784194475568325400,9.349325439453125,-0.6303189992904663,0.23082099854946136,-1.4917290210723877
1784194475578409500,9.359409423828126,0.6877470016479492,0.006529000122100115,0.7375569939613342
1784194475588493600,9.36949365234375,0.7337740063667297,0.3091979920864105,1.5757180452346802
1784194475598577700,9.37957763671875,-0.11172199994325638,-0.028282999992370605,-1.031195044517517
1784194475608661800,9.389661865234375,-0.4768249988555908,0.02515600062906742,-1.206987977027893
1784194475618745900,9.399745849609374,0.35983899235725403,-0.03864699974656105,0.5398510098457336
1784194475628830000,9.409829833984375,0.6834729909896851,0.2401829957962036,0.3382030129432678
1784194475638914000,9.4199140625,-0.028735000640153885,0.015761999413371086,0.040745001286268234
1784194475648998100,9.429998046875,-0.3386169970035553,0.013945000246167183,-0.4742549955844879
1784194475659082000,9.44008203125,0.3565540015697479,0.02205600030720234,0.09825299680233002
1784194475669166000,9.450166015625,0.5942980051040649,0.13794800639152527,0.2179960012435913
1784194475679250200,9.460250244140624,-0.03916599974036217,0.09565100073814392,0.05232900008559227
1784194475689334300,9.470334228515625,-0.17417499423027039,0.017170000821352005,-0.0026459998916834593
1784194475699418400,9.48041845703125,0.52183997631073,-0.02074499987065792,0.12943099439144135
1784194475709502200,9.490502197265625,0.24506700038909912,-0.02229899913072586,-0.2724109888076782
1784194475719586600,9.500586669921875,0.07803100347518921,0.13201600313186646,-0.3525199890136719
1784194475729670400,9.51067041015625,0.41700300574302673,0.13739900290966034,0.1901549994945526
1784194475739754500,9.52075439453125,0.39722201228141785,0.05871700122952461,0.3611209988594055
1784194475749838600,9.530838623046876,-0.12502899765968323,-0.051281001418828964,0.14836500585079193
1784194475759922700,9.540922607421875,-0.005526999942958355,-0.06793399900197983,-0.49986499547958374
1784194475770006800,9.5510068359375,0.41282299160957336,-0.0029090000316500664,-0.1646070033311844
1784194475780091000,9.5610908203125,0.11823999881744385,0.0186769999563694,0.21924099326133728
1784194475790175000,9.571175048828126,-0.13348299264907837,-0.1415569931268692,0.4948030114173889
1784194475800259000,9.581259033203125,0.10508999973535538,-0.2861829996109009,-0.011703000403940678
1784194475810343200,9.59134326171875,-0.32380399107933044,-0.20218800008296967,-0.26113298535346985
1784194475820427300,9.60142724609375,0.07129199802875519,-0.1279889941215515,0.3983849883079529
1784194475830511400,9.611511474609374,0.23686400055885315,-0.20962899923324585,0.0501910001039505
1784194475840595200,9.62159521484375,-0.10726399719715118,-0.17649899423122406,-0.5060650110244751
1784194475850679300,9.63167919921875,-0.2990719974040985,-0.31037798523902893,0.6653710007667542
1784194475860763400,9.641763427734375,0.13505400717258453,-0.2079409956932068,0.17736800014972687
1784194475870847500,9.651847412109374,0.10395999997854233,-0.13613399863243103,0.4408240020275116
1784194475880931600,9.661931640625,0.0032339999452233315,-0.1384419947862625,-0.16163800656795502
1784194475891015700,9.672015625,0.19259700179100037,-0.18404099345207214,-0.03763600066304207
1784194475901099800,9.682099853515625,-0.2424049973487854,-0.19165900349617004,0.5643479824066162
1784194475911184000,9.692183837890624,-0.16584299504756927,-0.12461599707603455,-0.4147540032863617
1784194475921268000,9.70226806640625,0.36388400197029114,-0.11058100312948227,0.09377200156450272
1784194475931352000,9.71235205078125,-0.0533440001308918,-0.1604740023612976,0.13222600519657135
1784194475941436000,9.722435791015625,0.1401890069246292,-0.11713600158691406,-0.09023100137710571
1784194475951520300,9.732520263671875,0.07509800046682358,-0.02348100021481514,0.5911300182342529
1784194475961604000,9.74260400390625,0.2567090094089508,-0.025690000504255295,-0.13186199963092804
1784194475971688200,9.752688232421875,-0.013546999543905258,-0.028224999085068703,0.06253699958324432
1784194475981772300,9.762772216796876,-0.150409996509552,-0.09023399651050568,-0.4779910147190094
1784194475991856400,9.7728564453125,0.08448799699544907,-0.1238740012049675,-0.37894999980926514
1784194476001940500,9.7829404296875,-0.00317199993878603,-0.02958800084888935,0.5332720279693604
1784194476012024600,9.793024658203125,0.370045006275177,-0.15155300498008728,0.07617399841547012
1784194476022108700,9.803108642578126,-0.061694998294115067,-0.04812400043010712,-0.574629008769989
1784194476032192800,9.81319287109375,-0.3493019938468933,-0.16282199323177338,-0.15467000007629395
1784194476042276900,9.82327685546875,0.20801599323749542,-0.08827400207519531,-0.08915100246667862
1784194476052361000,9.83336083984375,0.37936100363731384,-0.13312800228595734,0.07459700107574463
1784194476062445000,9.843445068359374,-0.048030998557806015,-0.06535299867391586,-0.4259200096130371
1784194476072529200,9.853529052734375,0.14733600616455078,-0.09587199985980988,-0.057057999074459076
1784194476082613000,9.863613037109374,0.014957999810576439,-0.19600600004196167,0.06762400269508362
1784194476092697000,9.873697021484375,0.19875699281692505,-0.0759660005569458,-0.13380299508571625
1784194476102781200,9.88378125,-0.04455899819731712,0.05662599951028824,-0.22429800033569336
1784194476112865300,9.893865234375,0.24982699751853943,-0.14441299438476562,-0.3333739936351776
1784194476122949400,9.903949462890624,0.0950310006737709,-0.11951199918985367,0.07702799886465073
1784194476133033500,9.914033447265625,-0.015630999580025673,-0.12399499863386154,0.021025000140070915
1784194476143117600,9.92411767578125,-0.22697900235652924,0.005681000184267759,-0.14240999519824982
1784194476153201700,9.93420166015625,-0.05488700047135353,-0.3053849935531616,0.03973099961876869
1784194476163285800,9.94428564453125,0.13475599884986877,-0.32579100131988525,-0.04149100184440613
1784194476173369900,9.954369873046875,0.0829790011048317,-0.17646199464797974,-0.13128900527954102
1784194476183454000,9.964453857421875,-0.010792000219225883,0.22505800426006317,-0.3297869861125946
1784194476193537800,9.974537841796876,0.21640299260616302,-0.15067100524902344,0.432108998298645
1784194476203622000,9.984621826171875,0.02490600012242794,-0.23308800160884857,0.16294899582862854
1784194476213706000,9.9947060546875,0.2524999976158142,-0.1407729983329773,0.02653699927031994
1784194476223790000,10.0047900390625,0.2211180031299591,0.17685699462890625,-0.3234489858150482
1784194476233874200,10.014874267578126,0.2914220094680786,-0.01854800060391426,0.4975390136241913
1784194476243958300,10.024958251953125,0.24656200408935547,-0.10131099820137024,0.5160319805145264
1784194476254042400,10.03504248046875,0.024772999808192253,-0.10998699814081192,-0.6038079857826233
1784194476264126500,10.04512646484375,0.045944999903440475,0.09762000292539597,-1.8344659805297852
1784194476274210600,10.05521044921875,0.3769029974937439,0.19695299863815308,-0.582364022731781
1784194476284294700,10.065294677734375,0.5490589737892151,-0.012178000062704086,1.914389967918396
1784194476294378500,10.07537841796875,0.24125300347805023,-0.04260899871587753,0.857010006904602
1784194476304462600,10.085462646484375,-0.11808200180530548,0.009205999784171581,-1.0074889659881592
1784194476314546700,10.095546630859374,0.34330201148986816,0.00009200000204145908,-1.3531739711761475
1784194476324630800,10.105630859375,0.2356950044631958,0.06615699827671051,1.021299958229065
1784194476334715000,10.11571484375,-0.010331000201404095,-0.13869599997997284,0.8051350116729736
1784194476344799000,10.125799072265625,0.6991980075836182,-0.17370599508285522,-0.2929939925670624
1784194476354883000,10.135883056640624,0.005619999952614307,0.009266000241041183,-0.6610029935836792
1784194476364967200,10.14596728515625,-0.1640470027923584,0.03210899978876114,-0.025849999859929085
1784194476375051300,10.15605126953125,0.8524259924888611,-0.00795000046491623,0.8810179829597473
1784194476385135400,10.16613525390625,0.45602500438690186,0.038325000554323196,-0.29407399892807007
1784194476395219500,10.176219482421875,-0.154229998588562,0.15216100215911865,-0.31706899404525757
1784194476405303600,10.186303466796875,0.37465301156044006,0.04218500107526779,-0.11671800166368484
1784194476415387600,10.1963876953125,0.39257898926734924,-0.07438000291585922,0.3523159921169281
1784194476425471700,10.2064716796875,0.25721099972724915,0.05566899850964546,0.0603489987552166
1784194476435555800,10.216555908203125,-0.1719290018081665,0.11348000168800354,-0.16530199348926544
1784194476445640000,10.226639892578126,0.5381690263748169,0.06140799820423126,0.06239699944853783
1784194476455724000,10.23672412109375,0.49010801315307617,-0.10368900001049042,0.1169620007276535
1784194476465808100,10.24680810546875,-0.12487799674272537,0.01488099992275238,0.3432300090789795
1784194476475892200,10.256892333984375,0.3732610046863556,0.07463899999856949,-0.19885799288749695
1784194476485976000,10.26697607421875,0.36328500509262085,0.02222299948334694,-0.010858000256121159
1784194476496060200,10.27706005859375,0.08256299793720245,-0.10668999701738358,0.5070909857749939
1784194476506144300,10.287144287109374,0.1419849991798401,-0.0010930000571534038,-0.14796200394630432
1784194476516228400,10.297228271484375,0.4100179970264435,0.001395000028423965,0.2829020023345947
1784194476526312400,10.3073125,0.04161300137639046,-0.1999029964208603,-0.24382199347019196
1784194476536396500,10.317396484375,0.06682299822568893,-0.08186899870634079,0.3623749911785126
1784194476546480600,10.327480712890624,0.3383390009403229,-0.0848580002784729,0.16843199729919434
1784194476556564700,10.337564697265625,0.007325999904423952,0.016085999086499214,-0.14886200428009033
1784194476566648800,10.34764892578125,0.32124000787734985,-0.1492539942264557,0.16038000583648682
1784194476576733000,10.35773291015625,0.33080700039863586,-0.07501699775457382,-0.17870399355888367
1784194476586817000,10.367817138671874,0.06468600034713745,0.05451999977231026,0.36989501118659973
1784194476596901000,10.377901123046875,0.2217639982700348,-0.04932200163602829,-0.10448399931192398
1784194476606985200,10.387985107421875,-0.02428700029850006,-0.21244199573993683,-0.12151999771595001
1784194476617069300,10.3980693359375,0.16276699304580688,-0.23175999522209167,0.17254500091075897
1784194476627153200,10.408153076171875,0.1488579958677292,-0.10993000119924545,0.04138199985027313
1784194476637237200,10.4182373046875,-0.07743699848651886,-0.16568300127983093,0.1122559979557991
1784194476647321300,10.4283212890625,-0.15992200374603271,-0.3795590102672577,-0.24593600630760193
1784194476657405400,10.438405517578126,0.05389200150966644,-0.4278540015220642,0.17111800611019135
1784194476667489500,10.448489501953125,0.07111500203609467,-0.31560200452804565,-0.22337199747562408
1784194476677573600,10.45857373046875,-0.014882000163197517,-0.17682300508022308,0.09518899768590927
1784194476687657700,10.46865771484375,0.020251000300049782,-0.2568129897117615,-0.18183399736881256
1784194476697741800,10.478741943359376,-0.10373599827289581,-0.23315399885177612,-0.07922200113534927
1784194476707826000,10.488825927734375,0.408610999584198,-0.16130000352859497,-0.14217600226402283
1784194476717910000,10.498909912109376,0.38549500703811646,-0.0253129992634058,-0.11417700350284576
1784194476727994000,10.508994140625,-0.3463430106639862,-0.035346001386642456,0.07215400040149689
1784194476738078200,10.519078125,0.04533100128173828,-0.3115310072898865,-0.389057993888855
1784194476748162300,10.529162353515625,0.4868159890174866,-0.3024959862232208,0.004143000114709139
1784194476758246400,10.539246337890624,-0.1387380063533783,-0.09138000011444092,-0.30111101269721985
1784194476768330200,10.549330322265625,0.19931399822235107,-0.05332300066947937,-0.05425899848341942
1784194476778414300,10.559414306640624,0.2441219985485077,-0.1501149982213974,0.05005500093102455
1784194476788498400,10.56949853515625,-0.390641987323761,-0.17625300586223602,-0.18607699871063232
1784194476798582500,10.57958251953125,0.35891199111938477,-0.011126000434160233,0.043535999953746796
1784194476808666600,10.58966650390625,0.4552589952945709,0.0627560019493103,-0.1853809952735901
1784194476818750700,10.599750732421874,-0.21058200299739838,0.007873999886214733,-0.20235900580883026
1784194476828834800,10.609834716796875,0.09401799738407135,-0.016367999836802483,0.041058000177145004
1784194476838919000,10.6199189453125,0.4436120092868805,-0.15285900235176086,-0.22684800624847412
1784194476849003000,10.6300029296875,0.10510200262069702,-0.006233000196516514,0.037432000041007996
1784194476859087000,10.640087158203125,0.03053699992597103,0.12565000355243683,-0.15702499449253082
1784194476869171200,10.650171142578126,0.3464910089969635,0.022748000919818878,-0.19290700554847717
1784194476879255300,10.66025537109375,0.2815000116825104,-0.14463099837303162,-0.03229299932718277
1784194476889339400,10.67033935546875,-0.12190400063991547,-0.005063999909907579,-0.10994700342416763
1784194476899423500,10.680423583984375,0.2122890055179596,0.09609299898147583,0.04533800110220909
1784194476909507600,10.690507568359376,0.4512630105018616,0.0005760000203736126,0.060704998672008514
1784194476919591700,10.700591796875,-0.05487700179219246,-0.13292700052261353,-0.09130699932575226
1784194476929675500,10.710675537109376,-0.15479399263858795,-0.07200700044631958,0.13575099408626556
1784194476939759900,10.720759765625,0.5890380144119263,0.048144999891519547,-0.13874000310897827
1784194476949843700,10.73084375,0.17298300564289093,0.006188000086694956,0.06739100068807602
1784194476959927800,10.740927734375,0.08235099911689758,0.10079299658536911,0.1260869950056076
1784194476970012000,10.751011962890624,0.41165798902511597,0.12300000339746475,-0.2552280128002167
1784194476980096000,10.761095947265625,0.08915700018405914,0.011509999632835388,0.3655810058116913
1784194476990180000,10.77118017578125,0.2887110114097595,0.07229100167751312,-0.35236701369285583
1784194477000264200,10.78126416015625,0.12603700160980225,-0.10107900202274323,0.4823499917984009
1784194477010348300,10.791348388671874,0.5936049818992615,-0.04022900015115738,-0.2484620064496994
1784194477020432400,10.801432373046875,-0.19585399329662323,-0.1277189999818802,0.2336519956588745
1784194477030516500,10.8115166015625,0.003189000068232417,-0.09056100249290466,-0.02889999933540821
1784194477040600600,10.8216005859375,0.4157570004463196,-0.15899699926376343,-0.05055300146341324
1784194477050684700,10.8316845703125,0.35036200284957886,-0.12593799829483032,0.27755600214004517
1784194477060768800,10.841768798828125,-0.0200360007584095,-0.04351799935102463,-0.2673490047454834
1784194477070852600,10.8518525390625,-0.27573999762535095,-0.11174800246953964,0.39031198620796204
1784194477080936700,10.861936767578126,0.4334999918937683,-0.36443498730659485,-0.08607400208711624
1784194477091020800,10.872020751953125,0.3212270140647888,-0.12607799470424652,-0.10898499935865402
1784194477101105000,10.88210498046875,-0.5011109709739685,-0.23162800073623657,0.46007901430130005
1784194477111189000,10.89218896484375,0.7636939883232117,-0.08216000348329544,-0.5672249794006348
1784194477121273000,10.902273193359376,0.47220999002456665,-0.3994329869747162,0.3631869852542877
1784194477131357200,10.912357177734375,-0.5341200232505798,-0.179639995098114,-0.33555200695991516
1784194477141441300,10.922441162109376,0.5337089896202087,0.051701001822948456,0.0377190001308918
1784194477151525400,10.932525390625,0.8730549812316895,-0.22563999891281128,0.006390000227838755
1784194477161609500,10.942609375,-0.279774010181427,-0.26411399245262146,-0.3171589970588684
1784194477171693600,10.952693603515625,0.2231599986553192,-0.16454599797725677,0.35450300574302673
1784194477181777400,10.96277734375,0.6737769842147827,0.06163400039076805,-0.24686799943447113
1784194477191861500,10.972861572265625,0.022861000150442123,-0.13578900694847107,0.23936200141906738
1784194477201945600,10.982945556640624,-0.010325999930500984,-0.33806198835372925,0.0017030000453814864
1784194477212029700,10.99302978515625,0.520995020866394,-0.29578399658203125,0.1769620031118393
1784194477222113800,11.00311376953125,0.2694689929485321,-0.2008890062570572,0.08989399671554565
1784194477232198000,11.013197998046875,0.001062000053934753,-0.2304069995880127,0.32638999819755554
1784194477242282000,11.023281982421874,0.29109400510787964,-0.4853590130805969,0.1978829950094223
1784194477252366000,11.033365966796875,0.601203978061676,-0.2916789948940277,0.39730000495910645
1784194477262450200,11.0434501953125,0.13634799420833588,-0.2900109887123108,0.33024001121520996
1784194477272534300,11.0535341796875,0.19032500684261322,-0.2088869959115982,0.42113998532295227
1784194477282618400,11.063618408203125,0.5238140225410461,-0.39223700761795044,0.42082199454307556
1784194477292702500,11.073702392578125,-0.03794899955391884,-0.4377399981021881,0.3621949851512909
1784194477302786600,11.08378662109375,0.416032999753952,-0.35911300778388977,0.5863289833068848
1784194477312870700,11.09387060546875,0.4247579872608185,-0.452908992767334,0.2110220044851303
1784194477322954500,11.10395458984375,0.12145999819040298,-0.3738250136375427,0.5671359896659851
1784194477333038600,11.11403857421875,0.25204598903656006,-0.3621140122413635,0.471329003572464
1784194477343122700,11.124122802734375,0.5884310007095337,-0.45088499784469604,0.5845789909362793
1784194477353206800,11.134206787109376,0.31858399510383606,-0.3717449903488159,0.35022199153900146
1784194477363291000,11.144290771484375,0.1298760026693344,-0.2924230098724365,0.6942809820175171
1784194477373375000,11.154375,0.6751520037651062,-0.2905679941177368,0.6318989992141724
1784194477383459000,11.164458984375,0.39108899235725403,-0.4293679893016815,0.4748240113258362
1784194477393543200,11.174543212890624,0.272038996219635,-0.4172070026397705,0.5216879844665527
1784194477403627300,11.184627197265625,0.41656699776649475,-0.32377099990844727,0.29535800218582153
1784194477413711400,11.19471142578125,0.5590659976005554,-0.2497120052576065,0.6186680197715759
1784194477423795500,11.20479541015625,0.06522099673748016,-0.3387790024280548,0.35148701071739197
1784194477433879600,11.214879638671874,0.3695620000362396,-0.4173310101032257,0.3976300060749054
1784194477443963600,11.224963623046875,0.8048830032348633,-0.3365339934825897,0.46015000343322754
1784194477454047700,11.2350478515625,-0.1531360000371933,-0.2279369980096817,0.5157390236854553
1784194477464131800,11.2451318359375,0.7657290101051331,-0.3146759867668152,0.5471500158309937
1784194477474216000,11.2552158203125,0.6067320108413696,-0.3747749924659729,0.2149830013513565
1784194477484300000,11.265300048828125,0.12099800258874893,-0.32881399989128113,0.40678200125694275
1784194477494384000,11.275384033203125,0.4771040081977844,-0.22153599560260773,0.33163800835609436
1784194477504468000,11.285468017578125,0.5743740200996399,-0.2385929971933365,0.6959969997406006
1784194477514552000,11.295552001953125,0.2238280028104782,-0.3321940004825592,0.23312200605869293
1784194477524636400,11.305636474609376,0.4090319871902466,-0.21236200630664825,0.6222599744796753
1784194477534720500,11.315720458984375,0.6647409796714783,-0.18179500102996826,0.33029401302337646
1784194477544804400,11.325804443359376,0.14913900196552277,-0.1701440066099167,0.3317610025405884
1784194477554888400,11.335888427734375,0.45736101269721985,-0.25439900159835815,0.3886510133743286
1784194477564972500,11.34597265625,0.5288209915161133,-0.24065500497817993,0.11431100219488144
1784194477575056600,11.356056640625,0.4192909896373749,-0.1469999998807907,0.5025519728660583
1784194477585140700,11.366140625,0.5245910286903381,-0.22443099319934845,0.18686999380588531
1784194477595224800,11.376224853515625,0.2579149901866913,-0.2606149911880493,0.4378640055656433
1784194477605309000,11.386308837890626,0.3701309859752655,-0.22774599492549896,0.2472819983959198
1784194477615393000,11.39639306640625,0.48895901441574097,-0.18014800548553467,0.136353999376297
1784194477625477000,11.40647705078125,0.6008579730987549,-0.2835479974746704,0.318342000246048
1784194477635561200,11.416561279296875,0.12663200497627258,-0.2818880081176758,0.1804399937391281
1784194477645645300,11.426645263671874,0.15698300302028656,-0.24632799625396729,0.27813199162483215
1784194477655729400,11.4367294921875,0.7605839967727661,-0.3239609897136688,0.09791400283575058
1784194477665813500,11.4468134765625,0.2497369945049286,-0.28114598989486694,0.3468010127544403
1784194477675897600,11.456897705078125,0.1890140026807785,-0.22875699400901794,0.2762559950351715
1784194477685981700,11.466981689453124,0.6421369910240173,-0.15577800571918488,-0.09822499752044678
1784194477696065800,11.477065673828125,0.2014710009098053,-0.27625301480293274,0.2949430048465729
1784194477706150000,11.48714990234375,0.2468540072441101,-0.22674299776554108,-0.03470199927687645
1784194477716233700,11.497233642578125,0.6295850276947021,-0.16990800201892853,0.43482500314712524
1784194477726318000,11.507318115234375,0.6683200001716614,-0.27636000514030457,-0.24250300228595734
1784194477736402000,11.51740185546875,0.05993599817156792,-0.16451199352741241,0.2845039963722229
1784194477746486000,11.527486083984375,0.44120800495147705,-0.24234500527381897,0.03860199823975563
1784194477756570000,11.537570068359376,0.7773839831352234,-0.16960099339485168,0.06649500131607056
1784194477766654200,11.547654296875,0.11479800194501877,-0.30730000138282776,0.2620620131492615
1784194477776738300,11.55773828125,0.284976989030838,-0.23402799665927887,-0.12342199683189392
1784194477786822400,11.567822509765625,0.9154520034790039,-0.13722799718379974,0.394228994846344
1784194477796906500,11.577906494140626,0.3463299870491028,-0.07864200323820114,0.08690600097179413
1784194477806990600,11.587990478515625,0.4877229928970337,-0.12265300005674362,-0.1515199989080429
1784194477817074700,11.59807470703125,0.8386139869689941,-0.07886700332164764,0.1470550000667572
1784194477827159000,11.608158935546875,0.6160839796066284,0.06628300249576569,-0.2585090100765228
1784194477837243000,11.618242919921874,0.7249320149421692,0.07431299984455109,-0.19264499843120575
1784194477847327000,11.628326904296875,0.640762984752655,0.053029999136924744,0.3836899995803833
1784194477857411000,11.6384111328125,0.5579659938812256,0.013284999877214432,-0.37859299778938293
1784194477867495200,11.6484951171875,0.8306840062141418,-0.015281000174582005,0.23976600170135498
1784194477877579300,11.658579345703124,0.1370840072631836,-0.09709800034761429,-0.2064410001039505
1784194477887663400,11.668663330078125,0.03044399991631508,-0.22310900688171387,0.0771310031414032
1784194477897747500,11.67874755859375,1.139623999595642,-0.26897698640823364,0.2396720051765442
1784194477907831600,11.68883154296875,-0.13608400523662567,-0.19015400111675262,-0.2340030074119568
1784194477917915600,11.69891552734375,-0.7081220149993896,-0.42007699608802795,0.08645699918270111
1784194477927999700,11.708999755859375,0.5242800116539001,-0.5456690192222595,-0.06496500223875046
1784194477938083800,11.719083740234375,-0.26326799392700195,-0.9120270013809204,0.9966689944267273
1784194477948168000,11.72916796875,-1.0373049974441528,-0.839614987373352,-0.10868500173091888
1784194477958251800,11.739251708984375,-0.0702499970793724,-0.7963650226593018,0.6773980259895325
1784194477968336100,11.749336181640626,0.0645039975643158,-0.9460189938545227,0.5341939926147461
1784194477978420200,11.759420166015625,-0.680633008480072,-0.7692790031433105,0.7080879807472229
1784194477988504300,11.76950439453125,-0.6274470090866089,-0.8829330205917358,0.6791430115699768
1784194477998588200,11.779588134765625,-0.026527000591158867,-0.7903289794921875,-0.08279400318861008
1784194478008672300,11.78967236328125,-0.3107370138168335,-0.7709479928016663,1.2178959846496582
1784194478018756400,11.79975634765625,-0.2745789885520935,-0.7008739709854126,0.09816300123929977
1784194478028840400,11.80984033203125,0.2230069935321808,-0.7286480069160461,0.7691500186920166
1784194478038924500,11.819924560546875,0.30583998560905457,-0.5692480206489563,0.42171400785446167
1784194478049009000,11.8300087890625,-0.26764199137687683,-0.5317720174789429,0.6024289727210999
1784194478059093000,11.840093017578125,0.17727099359035492,-0.41584500670433044,0.58194500207901
1784194478069177000,11.850177001953124,0.2706089913845062,-0.4150800108909607,0.07782600075006485
1784194478079261000,11.860260986328125,0.2588919997215271,-0.432110995054245,0.6416130065917969
1784194478089345000,11.870344970703124,0.7295870184898376,-0.4498730003833771,0.24010400474071503
1784194478099429400,11.880429443359375,0.09393499791622162,-0.3765279948711395,0.1305450052022934
1784194478109513500,11.890513427734374,0.13118000328540802,-0.26975199580192566,0.4954249858856201
1784194478119597300,11.900597412109375,0.6533010005950928,-0.2044609934091568,-0.3607580065727234
1784194478129681400,11.910681396484375,0.3102000057697296,-0.25354498624801636,0.4279020130634308
1784194478139765500,11.920765625,0.18808799982070923,-0.17135900259017944,-0.1767369955778122
1784194478149849600,11.930849609375,0.5085070133209229,-0.13922299444675446,-0.11776100099086761
1784194478159933700,11.94093359375,0.9128739833831787,-0.17660300433635712,0.048347000032663345
1784194478170017800,11.951017822265625,0.2521890103816986,0.01563899964094162,-0.34011098742485046
1784194478180102000,11.961101806640626,0.2280450016260147,0.1386370062828064,0.06369800120592117
1784194478190185700,11.971185791015625,0.9739789962768555,-0.048211000859737396,-0.3419739902019501
1784194478200269800,11.981269775390626,0.6027100086212158,-0.13589900732040405,-0.3079569935798645
1784194478210354200,11.991354248046875,0.28375399112701416,-0.005468999966979027,0.07540600001811981
1784194478220438300,12.001438232421876,0.8032919764518738,0.03606199845671654,-0.5279920101165771
1784194478230522000,12.011522216796875,1.0829609632492065,-0.1280360072851181,-0.08944100141525269
1784194478240606200,12.021606201171876,0.6959180235862732,-0.04951599985361099,-0.5714790225028992
1784194478250690300,12.031690185546875,1.0071049928665161,0.17082999646663666,-0.18892799317836761
1784194478260774400,12.0417744140625,1.1917990446090698,0.17864300310611725,-0.28606298565864563
1784194478270858500,12.0518583984375,0.1664000004529953,0.18954500555992126,-0.42412400245666504
1784194478280942600,12.061942626953124,0.5471929907798767,0.2070939987897873,-0.08542100340127945
1784194478291026700,12.072026611328125,1.1411370038986206,0.10491199791431427,-0.4859890043735504
1784194478301110800,12.08211083984375,0.5810710191726685,0.04103799909353256,0.13641400635242462
1784194478311194600,12.092194580078125,0.2804189920425415,0.1674019992351532,-0.5246419906616211
1784194478321278700,12.10227880859375,1.2373850345611572,0.2533490061759949,-0.16086000204086304
1784194478331363000,12.112363037109375,0.14304900169372559,-0.00101200002245605,0.18420100212097168
1784194478341447000,12.122447021484374,0.18459700047969818,-0.21610400080680847,-0.3559750020503998
1784194478351531000,12.132531005859375,0.89718097448349,-0.2513670027256012,0.2945440113544464
1784194478361615000,12.142614990234375,-0.3047820031642914,-0.2854979932308197,-0.260113000869751
1784194478371699200,12.15269921875,0.5560889840126038,-0.4906409978866577,0.6514580249786377
1784194478381783300,12.162783203125,0.6832020282745361,-0.8474259972572327,0.2739900052547455
1784194478391867400,12.172867431640626,-0.10645899921655655,-0.8124979734420776,0.34922701120376587
1784194478401951500,12.182951416015625,0.2098820060491562,-0.4870310127735138,0.7669010162353516
1784194478412035600,12.19303564453125,0.6798580288887024,-0.4515169858932495,0.2949970066547394
1784194478422119700,12.20311962890625,0.3371340036392212,-0.7497689723968506,0.7605329751968384
1784194478432203800,12.213203857421876,-0.2610830068588257,-0.8911899924278259,0.46983200311660767
1784194478442287900,12.223287841796875,0.7170029878616333,-0.8034229874610901,0.51077800989151
1784194478452372000,12.2333720703125,0.4188840091228485,-0.4306879937648773,0.26973599195480347
1784194478462456000,12.2434560546875,-0.12918399274349213,-0.48350098729133606,0.8037149906158447
1784194478472540200,12.2535400390625,0.8143500089645386,-0.5450860261917114,0.06101299822330475
1784194478482624300,12.263624267578125,0.31338098645210266,-0.523169994354248,0.5558140277862549
1784194478492708400,12.273708251953124,0.3620679974555969,-0.4925749897956848,0.10714700073003769
