time_ms,acc_x,acc_y,acc_z,gyro_x,gyro_y,gyro_z
0.000,0.03181324,0.07897971,9.77321044,0.00060943,-0.00207997,0.00150090
10.000,-0.02727266,-0.01044334,9.82121080,0.00188113,-0.00390207,-0.00260373
20.000,0.00485089,0.03021540,9.75039067,0.00025568,-0.00063249,-0.00003235
30.000,0.01984268,-0.03711077,9.79948330,-0.00170609,0.00175880,0.00155747
40.000,0.08540068,-0.06991214,9.79267663,0.00013206,0.00225448,0.00093753
50.000,-0.06373229,0.00765340,9.85906165,-0.00171858,0.00073750,-0.00191462
60.000,0.00848276,-0.00583579,9.87307012,0.00175690,-0.00009985,-0.00036596
70.000,0.01652512,0.04097830,9.84241287,-0.00136186,0.00244508,-0.00030466
80.000,-0.14381202,-0.00383344,9.75274628,-0.00085666,-0.00070427,0.00106964
90.000,-0.04146584,0.07372931,9.78790972,0.00073089,0.00082547,0.00086730
100.000,0.09462841,-0.07038442,9.75246646,0.00428330,-0.00081283,-0.00101820
110.000,0.03811753,-0.01706858,9.82201637,-0.00162755,0.00123196,0.00226485
120.000,-0.00561534,-0.00712881,9.79143820,-0.00022789,-0.00168031,-0.00164142
130.000,0.00897467,0.03208191,9.88737111,0.00130119,0.00148651,0.00109447
140.000,-0.01012563,-0.01968191,9.78052692,-0.00133102,0.00046432,0.00024217
150.000,0.07348919,0.03451624,9.71169833,0.00043738,0.00174286,0.00045661
160.000,-0.09715604,-0.04150289,9.81815727,0.00135783,0.00013516,0.00058829
170.000,-0.00167351,0.02573893,9.79787783,0.00126258,-0.00291431,-0.00062867
180.000,0.06987094,0.03860557,9.81052883,-0.00094075,-0.00127776,-0.00053898
190.000,0.05726697,-0.08244531,9.80239626,0.00298988,-0.00173166,0.00194849
200.000,0.00687562,0.03010182,9.72089170,-0.00336574,-0.00066977,0.00033806
210.000,-0.01302035,0.02002304,9.83050811,0.00117244,0.00142245,0.00159988
220.000,0.05930649,0.03807527,9.80360770,-0.00069745,-0.00092470,0.00172976
230.000,0.03374869,-0.01006818,9.81398870,-0.00038261,-0.00255137,-0.00225214
240.000,0.03974012,-0.00226504,9.82474948,-0.00183890,0.00099432,0.00029992
250.000,0.04806544,0.03560824,9.86832359,0.00138097,-0.00085451,0.00033277
260.000,0.11642241,0.03514639,9.78358537,0.00125118,-0.00061869,0.00092987
270.000,0.02559115,0.02344092,9.83732553,-0.00132385,-0.00072611,-0.00074653
280.000,0.07475081,-0.08420558,9.88234190,-0.00239168,0.00097394,-0.00092123
290.000,0.09252084,0.02840353,9.83625675,0.00002499,0.00096149,0.00091126
300.000,-0.01208224,0.00031620,9.84154761,0.00133077,-0.00019697,-0.00082777
310.000,0.03167762,0.03603549,9.83798343,-0.00015944,-0.00337467,-0.00287478
320.000,0.04491950,0.03933243,9.75543257,-0.00264540,-0.00199449,0.00081962
330.000,0.04161340,0.09292933,9.80531866,-0.00181096,-0.00075633,0.00261915
340.000,0.07497400,-0.04586476,9.80516187,-0.00071253,0.00147503,-0.00184591
350.000,-0.03205791,0.06896106,9.88867383,-0.00041088,-0.00190004,-0.00065612
360.000,-0.00495981,0.05855308,9.88918133,0.00168062,-0.00345464,0.00089142
370.000,-0.00164594,0.00648758,9.84333077,0.00047547,-0.00118830,-0.00286892
380.000,-0.04212690,0.00550488,9.91378936,0.00014426,-0.00105899,0.00048917
390.000,-0.02500068,0.04269131,9.83284022,0.00004370,0.00320356,-0.00045427
400.000,-0.00818830,0.01108275,9.89428100,-0.00204699,0.00035855,0.00046506
410.000,0.02767986,0.03549093,9.88669311,0.00271838,0.00167022,0.00073943
420.000,-0.01447052,-0.05234575,9.89506737,0.00292661,-0.00237753,-0.00125319
430.000,0.00682609,0.04468004,9.76853354,-0.00185315,-0.00077962,-0.00272644
440.000,0.01942632,-0.05484664,9.80983699,0.00127030,-0.00044445,-0.00291405
450.000,-0.03239616,-0.04388272,9.79149387,-0.00203116,0.00062703,0.00170443
460.000,-0.11466953,-0.05799512,9.84577071,0.00399346,0.00582772,0.00085762
470.000,0.01738332,-0.05370935,9.83404368,-0.00197908,-0.00426409,0.00056485
480.000,-0.04391065,0.03609819,9.80086805,-0.00162588,-0.00083071,-0.00119415
490.000,-0.01625616,-0.00455318,9.93462642,-0.00028158,0.00213196,0.00034476
500.000,-0.03794008,0.01132793,9.84571844,-0.00031727,-0.00207131,-0.00331808
510.000,-0.04812064,-0.07971289,9.77659509,-0.00097262,-0.00010757,0.00356777
520.000,0.03797316,-0.01710017,9.79509470,0.00026055,0.00196548,-0.00096606
530.000,0.04553848,-0.04031715,9.80221223,-0.00236989,-0.00193023,-0.00141730
540.000,-0.07569205,0.01603595,9.81812535,0.00425694,-0.00164277,0.00171075
550.000,0.03977681,-0.05726281,9.79705562,-0.00180585,0.00186315,0.00080429
560.000,-0.06392352,-0.01230533,9.88073940,-0.00031328,-0.00008153,-0.00127457
570.000,-0.01603764,-0.06829599,9.77265604,0.00089214,-0.00090997,-0.00241559
580.000,-0.08054759,-0.06478864,9.84019935,-0.00255588,0.00034518,0.00319442
590.000,-0.07231416,0.01561643,9.80793713,0.00031998,-0.00023728,0.00060851
600.000,-0.02657641,0.01136750,9.75976692,0.00261200,0.00043877,-0.00078438
610.000,0.04204222,-0.03491701,9.78733166,0.00221258,0.00085751,0.00310961
620.000,-0.02526755,0.03447368,9.83387220,0.00036647,-0.00244894,-0.00269761
630.000,-0.13108506,0.01271215,9.71942036,0.00330186,0.00344733,-0.00031971
640.000,-0.01706609,-0.00540870,9.78904709,-0.00076637,0.00292289,-0.00217415
650.000,0.02504096,0.03600383,9.76797671,-0.00178945,0.00128665,-0.00074865
660.000,-0.04048985,-0.00179848,9.72946340,-0.00001024,-0.00032689,0.00071632
670.000,-0.02384890,0.06740389,9.73133497,0.00281496,0.00018117,0.00132966
680.000,-0.01700587,-0.02961504,9.90691339,-0.00410034,-0.00009744,-0.00164406
690.000,-0.02689306,-0.02399054,9.75511175,-0.00243763,-0.00175630,-0.00062523
700.000,0.00046609,0.01350835,9.76235901,0.00183181,-0.00265279,0.00010489
710.000,0.04943614,0.01355318,9.84924496,-0.00096834,-0.00065535,0.00204976
720.000,-0.01640678,0.01215922,9.79599518,0.00107623,0.00267480,-0.00026416
730.000,0.07288408,0.00581321,9.80708770,-0.00139189,-0.00044772,0.00053046
740.000,-0.02291210,-0.02579818,9.81853610,0.00035315,-0.00216878,0.00022706
750.000,0.04097937,-0.03422790,9.81297896,0.00045646,0.00503495,0.00380038
760.000,0.00920847,0.01791818,9.72127518,-0.00170649,-0.00057477,-0.00287958
770.000,-0.04623663,-0.06829223,9.80829422,-0.00118141,0.00063121,0.00245962
780.000,-0.04504867,-0.02481206,9.74693597,-0.00145817,-0.00130829,-0.00424606
790.000,-0.02016183,-0.05620518,9.84454542,-0.00032533,-0.00212483,-0.00100975
800.000,0.02396140,0.00751146,9.79155290,-0.00175372,-0.00018853,-0.00346572
810.000,-0.10188434,-0.02291033,9.76857717,-0.00293409,0.00425849,-0.00252450
820.000,0.01236371,0.03098536,9.82288163,-0.00219357,0.00367383,0.00586109
830.000,0.06315192,-0.02841571,9.77616121,-0.00234313,-0.00073650,0.00073467
840.000,0.05189391,0.00831082,9.79430006,0.00345740,-0.00197371,-0.00043839
850.000,0.09232606,0.02888653,9.79712279,0.00155468,0.00086953,-0.00069954
860.000,-0.03429724,0.06632563,9.81699985,-0.00026765,-0.00274979,-0.00042297
870.000,0.00122585,0.03381382,9.85065439,-0.00053277,0.00046434,-0.00105667
880.000,0.02749350,0.04419878,9.82921872,0.00094308,0.00202543,0.00036545
890.000,0.02774453,-0.03658189,9.89716769,0.00070351,0.00010631,0.00005536
900.000,-0.06168383,0.01546888,9.73981165,-0.00144312,0.00063299,-0.00013877
910.000,-0.00490644,-0.02856468,9.81343779,0.00418634,0.00314671,0.00082809
920.000,0.01708788,-0.04781669,9.80517928,-0.00152611,-0.00222482,0.00243929
930.000,0.06968371,-0.06561325,9.76394731,0.00052550,0.00096029,-0.00343157
940.000,0.04303773,0.00387774,9.81420775,0.00185488,0.00090884,-0.00216265
950.000,0.05111512,-0.03970344,9.78068324,-0.00094305,0.00052743,0.00016374
960.000,-0.03213209,-0.01741015,9.87362610,-0.00058434,-0.00020698,-0.00044455
970.000,-0.08505400,-0.05971094,9.73836585,0.00030513,0.00294298,-0.00507331
980.000,0.07008470,-0.03072000,9.79031632,-0.00047370,0.00035302,0.00065260
990.000,-0.08073171,-0.01311930,9.84997609,-0.00074383,-0.00351344,0.00071720
1000.000,0.01264785,-0.00539320,9.72840572,0.00345470,-0.00306772,0.00178946
1010.000,-0.01639760,0.00734574,9.75705876,-0.00065705,-0.00012265,-0.00204340
1020.000,0.03274456,0.04425343,9.78021756,-0.00066891,0.00260009,0.00122831
1030.000,0.03629161,-0.00548698,9.86400690,0.00346462,0.00235482,0.00094177
1040.000,0.10170753,-0.05468327,9.84512422,0.00348787,0.00087799,0.00172017
1050.000,0.06524823,-0.04853402,9.77789397,-0.00059314,0.00013309,-0.00133006
1060.000,-0.02931885,-0.00663906,9.78883172,0.00197917,-0.00235661,0.00163008
1070.000,-0.00991423,0.04189942,9.71185941,-0.00038130,0.00234249,0.00156771
1080.000,-0.04869467,0.03349640,9.83428881,0.00364129,0.00146155,-0.00307752
1090.000,-0.05292711,0.02798510,9.87299335,-0.00013391,-0.00234401,-0.00096940
1100.000,-0.00245133,-0.05039805,9.85039771,0.00302246,0.00127507,-0.00133011
1110.000,0.08615227,-0.04430702,9.80861260,-0.00202743,0.00006556,-0.00236478
1120.000,0.05450778,0.00576794,9.71928518,-0.00134228,0.00062402,0.00237955
1130.000,0.02217089,-0.04894043,9.74311387,0.00121752,-0.00458258,0.00067825
1140.000,-0.08638740,0.05952036,9.76491443,0.00014407,0.00082778,0.00330253
1150.000,0.01666681,0.02894772,9.81474095,-0.00412648,-0.00118221,0.00125251
1160.000,0.01482854,0.01905240,9.81355488,-0.00316319,0.00295190,0.00080800
1170.000,-0.03800798,-0.04246686,9.80140092,0.00169317,-0.00114189,0.00169940
1180.000,-0.00630820,0.02146599,9.86173250,0.00213694,0.00046576,0.00054126
1190.000,0.01719527,-0.04054419,9.69759221,0.00054069,-0.00172669,-0.00022202
1200.000,-0.03844686,-0.06722452,9.77013139,-0.00030505,0.00076679,0.00207327
1210.000,0.01211385,0.00421953,9.89955888,-0.00211707,-0.00025002,0.00303712
1220.000,0.02415408,0.09545836,9.84240697,-0.00148718,-0.00164450,0.00047940
1230.000,0.05428534,-0.01794511,9.75292454,0.00168877,0.00002285,0.00273330
1240.000,-0.02244799,-0.00059348,9.77524206,0.00171359,0.00168364,0.00118419
1250.000,-0.05005712,0.02084188,9.75638014,0.00465531,-0.00041032,-0.00393051
1260.000,-0.07667460,-0.05610431,9.79493223,0.00320851,-0.00091540,0.00029288
1270.000,-0.04954596,-0.01140450,9.83667222,0.00261910,-0.00320452,-0.00242560
1280.000,0.02872215,-0.03304130,9.74145292,-0.00320256,-0.00158827,0.00095755
1290.000,-0.02878117,0.03278224,9.85110981,0.00104838,0.00055255,-0.00274668
1300.000,0.01764450,0.06007180,9.89311011,-0.00462021,0.00010871,-0.00086412
1310.000,-0.02416140,0.07432816,9.79362252,0.00091877,0.00140391,0.00035649
1320.000,0.05099243,0.03542862,9.70779708,0.00152027,0.00045842,0.00114071
1330.000,-0.04831136,-0.06106440,9.71754765,-0.00140935,-0.00035922,0.00047471
1340.000,0.04396575,0.10343859,9.79376637,0.00164106,-0.00078748,0.00112406
1350.000,0.04270783,0.07423127,9.81706659,-0.00053168,-0.00023508,0.00174134
1360.000,-0.00126565,-0.01228440,9.83352794,-0.00398612,-0.00259294,-0.00288150
1370.000,0.04373470,0.02309025,9.82802315,-0.00466723,-0.00135653,0.00158231
1380.000,-0.00256015,-0.07964773,9.85153582,-0.00056977,0.00039558,0.00226245
1390.000,-0.06423126,0.03096928,9.84443683,0.00265537,-0.00013828,0.00279176
1400.000,-0.05702161,-0.03039004,9.91272373,0.00018425,-0.00167480,-0.00110364
1410.000,-0.00397411,-0.06101068,9.84669396,-0.00296107,-0.00177627,-0.00063031
1420.000,-0.03863376,-0.09602620,9.83263848,0.00160717,0.00344154,-0.00267807
1430.000,-0.04583089,0.01605942,9.76601550,0.00078565,-0.00208109,0.00103625
1440.000,0.03536021,0.00917492,9.67718957,-0.00026217,-0.00366181,0.00194402
1450.000,0.01910063,-0.01448657,9.87748588,-0.00121000,-0.00106780,-0.00205152
1460.000,0.01976039,0.03780789,9.77112296,-0.00130857,0.00085578,-0.00028994
1470.000,-0.03950339,-0.00128247,9.78861919,0.00065732,0.00072384,0.00273044
1480.000,0.06690045,-0.00766595,9.74540891,-0.00068557,-0.00295372,0.00222412
1490.000,-0.04137905,0.04825255,9.79828713,-0.00066298,0.00222918,0.00085699
1500.000,-0.01103559,0.05300938,9.76091184,-0.00026228,0.00069755,0.00399282
1510.000,-0.11175881,-0.04264333,9.81875445,0.00415396,0.00013876,0.00041174
1520.000,-0.01247558,-0.07802148,9.85745298,0.00215248,-0.00169132,0.00075806
1530.000,0.00817485,0.01945073,9.82763051,-0.00005173,0.00062782,-0.00157426
1540.000,-0.06492621,0.01514395,9.85202269,-0.00317913,-0.00414597,-0.00214174
1550.000,0.05701551,0.03606317,9.83230648,-0.00091735,-0.00058638,0.00396805
1560.000,-0.08687106,-0.00074673,9.75882128,0.00221199,-0.00192418,0.00078956
1570.000,0.06410839,0.05651897,9.75912356,-0.00081416,-0.00056873,0.00046535
1580.000,-0.00229891,0.01242547,9.85168956,0.00123834,-0.00067852,0.00222295
1590.000,-0.08378091,-0.11048112,9.80855743,-0.00228388,0.00001268,0.00529115
1600.000,-0.12657084,0.00792862,9.83626039,0.00044616,0.00286643,0.00027939
1610.000,0.06180400,-0.03112841,9.81470908,0.00116155,-0.00011357,-0.00024391
1620.000,0.03257549,-0.05878600,9.85241739,-0.00155896,0.00086060,-0.00160562
1630.000,0.01371712,-0.03027232,9.81371903,0.00133117,0.00217057,0.00083106
1640.000,-0.00696672,0.03900370,9.78862700,-0.00057250,0.00090793,-0.00051880
1650.000,0.01135452,-0.03104658,9.75975786,0.00187109,-0.00366281,-0.00057212
1660.000,0.00857664,-0.04483838,9.84667901,-0.00398162,-0.00299012,0.00282736
1670.000,0.02961163,-0.03825572,9.81733902,0.00179037,-0.00143896,-0.00290483
1680.000,-0.03848500,-0.08021564,9.77678874,-0.00592906,-0.00108699,0.00494155
1690.000,-0.00251584,0.02607044,9.81412400,0.00086977,-0.00111914,0.00103143
1700.000,0.04538373,-0.04905831,9.78781508,-0.00312192,-0.00059465,0.00030076
1710.000,0.08221834,-0.09655400,9.78405228,-0.00017220,0.00158161,0.00079164
1720.000,-0.05357470,-0.00976992,9.78492763,0.00133665,-0.00137674,0.00189852
1730.000,0.03010777,0.01277603,9.74136912,0.00325787,-0.00194030,-0.00167197
1740.000,-0.02940810,-0.00000585,9.84361904,0.00267157,-0.00038269,0.00291161
1750.000,0.12164781,0.03513979,9.75602500,-0.00088507,0.00291009,0.00036747
1760.000,-0.00469226,0.00904881,9.78068046,0.00051646,0.00312944,-0.00061851
1770.000,0.02351289,-0.11356885,9.83430748,-0.00188224,-0.00089713,0.00101024
1780.000,-0.02381937,-0.00548526,9.87993615,-0.00313152,0.00127494,-0.00097144
1790.000,-0.06307586,0.01363596,9.84634608,0.00229563,-0.00478852,-0.00146650
1800.000,0.00851682,-0.08070962,9.87416983,-0.00337294,-0.00165246,0.00060250
1810.000,-0.01056770,-0.02637704,9.79112586,-0.00035845,-0.00050676,-0.00021067
1820.000,-0.01910732,-0.05950898,9.81489753,0.00040678,-0.00201707,0.00152192
1830.000,-0.02986165,0.03354441,9.83252977,0.00132533,0.00077008,0.00122182
1840.000,0.08128347,-0.01058166,9.76648751,0.00059284,0.00407015,-0.00006491
1850.000,-0.07348712,0.10966717,9.83975540,-0.00061417,-0.00150706,-0.00195472
1860.000,-0.03462100,0.08465775,9.87445812,-0.00248894,-0.00177759,-0.00003103
1870.000,-0.06756388,-0.03767374,9.80003376,0.00066859,0.00010228,-0.00142022
1880.000,-0.05350425,-0.00482897,9.84224810,0.00180037,0.00147883,-0.00020792
1890.000,-0.06866304,0.01465003,9.86507490,-0.00130583,0.00109686,0.00048784
1900.000,0.02001101,-0.00378082,9.77324491,-0.00289625,-0.00013596,0.00063649
1910.000,0.04154209,-0.05884601,9.81878959,-0.00179939,0.00037969,-0.00279671
1920.000,0.00127579,0.05628055,9.77751256,0.00267237,0.00249590,-0.00039158
1930.000,-0.02488679,-0.06209324,9.82851421,0.00072691,-0.00481984,-0.00219872
1940.000,-0.02119079,-0.04310370,9.76830919,-0.00058756,-0.00214427,0.00154328
1950.000,0.02685527,-0.05514802,9.75594170,0.00399459,-0.00235323,-0.00155993
1960.000,0.04481807,-0.00830603,9.85442225,0.00047090,0.00322223,-0.00232923
1970.000,-0.01796779,-0.00005629,9.81446496,0.00049807,0.00364260,-0.00318749
1980.000,0.06936431,0.06529364,9.86431185,-0.00256214,-0.00084721,-0.00092464
1990.000,-0.03144094,-0.04934148,9.84468957,0.00162520,0.00048332,-0.00343288
2000.000,0.06883799,0.05814094,9.80730246,0.00103082,-0.00115508,0.00266645
2010.000,0.03639043,0.03726938,9.81409714,-0.00125518,-0.00127323,0.00120033
2020.000,0.00961868,0.00490977,9.76724517,0.00152585,0.00089620,-0.00325262
2030.000,-0.03430262,-0.03507452,9.72668816,0.00107607,-0.00206862,0.00058963
2040.000,0.00714300,-0.00202867,9.84474821,-0.00284747,0.00089264,-0.00149362
2050.000,0.06303586,0.06621472,9.87757327,-0.00256527,0.00142764,0.00060337
2060.000,-0.03785405,-0.07159796,9.85318718,-0.00122795,0.00290236,-0.00076072
2070.000,0.06910667,0.07779962,9.83089981,0.00006422,0.00053783,-0.00111825
2080.000,-0.09983520,0.01828047,9.83442204,0.00094227,-0.00106690,-0.00070169
2090.000,0.06260375,0.07148143,9.85213167,0.00272529,-0.00208117,-0.00470348
2100.000,-0.02936394,-0.05145587,9.83334806,0.00322187,0.00509866,-0.00068796
2110.000,-0.03962076,0.07375686,9.72142205,-0.00387368,-0.00062097,-0.00044937
2120.000,0.02834433,0.01597675,9.79631167,-0.00037985,-0.00222678,0.00128269
2130.000,-0.04625581,-0.10308882,9.78007857,0.00104901,-0.00298881,0.00152246
2140.000,-0.02569416,0.05558683,9.76750722,0.00410537,0.00034392,-0.00055009
2150.000,0.02263853,-0.06461199,9.83066241,-0.00028401,0.00123051,-0.00333629
2160.000,-0.11188502,0.10476481,9.79959662,0.00032878,-0.00078093,0.00382119
2170.000,-0.13972504,-0.03588747,9.76286689,-0.00034835,0.00333578,-0.00208145
2180.000,-0.03279091,-0.01823207,9.77351914,0.00117452,0.00063880,-0.00161158
2190.000,-0.04082060,-0.05793415,9.84773947,0.00035479,0.00242504,-0.00052058
2200.000,0.06005678,-0.01272869,9.80576817,-0.00338393,-0.00003513,-0.00167736
2210.000,-0.05631654,0.00355103,9.81814819,-0.00068468,-0.00016318,-0.00328334
2220.000,-0.01096993,0.01980375,9.82208544,-0.00323132,0.00096413,-0.00091699
2230.000,-0.05270697,0.05965238,9.79626769,-0.00512949,0.00156969,0.00067367
2240.000,0.08377858,0.02102103,9.90519666,-0.00142775,-0.00263366,0.00180103
2250.000,0.05876346,0.01135948,9.77049466,0.00069870,0.00476520,0.00097027
2260.000,-0.03507837,0.02665171,9.81380630,0.00077541,-0.00033386,0.00176392
2270.000,-0.02945131,0.04165300,9.80858857,0.00125017,0.00250345,-0.00091180
2280.000,0.04195049,-0.04877350,9.85662358,-0.00087081,-0.00095821,0.00171292
2290.000,0.02504978,0.05987848,9.85552153,0.00299675,-0.00091768,-0.00071776
2300.000,-0.00424767,-0.00826873,9.89580155,0.00062815,-0.00049152,0.00203637
2310.000,-0.01452842,0.03742168,9.78758065,-0.00450355,-0.00165341,-0.00143210
2320.000,-0.09309415,-0.06136695,9.82694604,-0.00464071,-0.00192728,-0.00169711
2330.000,0.03505658,0.02046067,9.86394748,-0.00040221,0.00222593,-0.00035645
2340.000,0.01956301,-0.03876174,9.83636511,-0.00206163,-0.00011391,0.00223248
2350.000,0.00848040,-0.02877790,9.83027597,-0.00195192,-0.00182115,0.00125170
2360.000,0.00396851,-0.03025003,9.79775671,-0.00044307,0.00129497,0.00010777
2370.000,0.07067836,0.06904439,9.81605721,0.00140333,-0.00207016,0.00011136
2380.000,0.00286336,-0.07165230,9.89261826,-0.00042138,-0.00243178,-0.00299097
2390.000,0.05181709,0.03759758,9.69291346,0.00137150,-0.00070190,-0.00190811
2400.000,0.00204613,-0.00635644,9.84079077,-0.00019236,0.00225604,-0.00442457
2410.000,-0.02255154,-0.01158551,9.83762065,-0.00299328,-0.00184577,0.00305972
2420.000,-0.03867892,-0.02870213,9.81631633,0.00056517,0.00153463,-0.00214250
2430.000,0.06692429,0.04042349,9.86042020,-0.00223907,0.00089563,0.00025483
2440.000,0.00316584,0.07475390,9.71959088,0.00109748,-0.00037534,0.00069502
2450.000,0.10111196,0.10758795,9.82948082,0.00031624,0.00155553,0.00175320
2460.000,0.04161313,-0.00189999,9.79617158,-0.00323974,-0.00449454,0.00214312
2470.000,-0.03054352,-0.00245060,9.83444667,0.00237545,-0.00204125,-0.00357959
2480.000,0.02099419,0.09933015,9.81166373,0.00019807,0.00186168,0.00373572
2490.000,-0.07444143,0.08221553,9.74560229,0.00103260,-0.00074343,-0.00164528
2500.000,-0.02796955,0.01358716,9.82750875,0.00002290,-0.00059853,-0.00188871
2510.000,-0.07227192,-0.03732361,9.73261088,0.00409751,0.00357034,0.00241396
2520.000,0.03108565,0.05916899,9.74555810,-0.00184170,0.00171004,0.00142156
2530.000,0.04978300,0.04653894,9.77369646,0.00088509,0.00249933,0.00141349
2540.000,-0.09912895,-0.05356280,9.77688712,0.00148003,0.00127381,0.00082477
2550.000,0.07708354,-0.00591513,9.75630860,-0.00356722,0.00016724,-0.00096876
2560.000,0.00739243,-0.06476738,9.83236700,-0.00255968,0.00336363,0.00360205
2570.000,-0.04888320,-0.04162619,9.82542460,0.00271844,0.00051043,0.00284575
2580.000,0.08751168,0.10988938,9.75465672,0.00002411,0.00040559,-0.00204201
2590.000,-0.02983032,0.02577661,9.86508947,0.00079398,0.00012077,-0.00245994
2600.000,-0.10820418,0.00436684,9.78229285,-0.00010239,-0.00015946,0.00374092
2610.000,-0.09620106,-0.06685839,9.77826128,0.00178843,0.00002289,0.00064380
2620.000,0.00294075,0.05040514,9.82436741,0.00008842,-0.00040583,-0.00201820
2630.000,0.04737697,0.00133622,9.77140270,-0.00030210,-0.00149220,-0.00235355
2640.000,-0.00918750,0.03477587,9.85827811,0.00102244,0.00078253,-0.00342591
2650.000,-0.00739373,-0.04645576,9.82343291,-0.00024537,0.00199140,0.00226637
2660.000,0.02389905,0.06163595,9.77271186,0.00205167,0.00007783,-0.00154174
2670.000,-0.03338986,0.03780801,9.78627832,-0.00216740,0.00068921,0.00090733
2680.000,-0.02248421,0.06270699,9.73809972,0.00257466,0.00219996,-0.00011527
2690.000,0.10281016,-0.03063177,9.84998642,-0.00248841,-0.00063821,0.00058407
2700.000,-0.00543998,0.01356811,9.79351068,-0.00040417,-0.00115579,0.00065579
2710.000,0.04282883,-0.01736619,9.77800268,-0.00100792,-0.00125613,0.00077334
2720.000,0.09066709,0.00146913,9.77286522,-0.00080399,0.00048821,0.00069726
2730.000,-0.07451433,0.09327890,9.77905373,-0.00227886,-0.00096248,0.00302682
2740.000,0.10309191,0.01994272,9.81379426,-0.00232416,-0.00423331,-0.00357202
2750.000,0.00849219,0.11079755,9.69703907,0.00005822,0.00006183,-0.00008314
2760.000,0.01071708,-0.01326018,9.79599533,0.00242838,-0.00534567,0.00094436
2770.000,0.00746559,-0.01331271,9.81605653,0.00312288,-0.00225556,-0.00060672
2780.000,-0.00117887,-0.06567791,9.82571830,-0.00150578,-0.00178869,-0.00049923
2790.000,0.03580272,-0.02710328,9.90004480,0.00285497,0.00367477,-0.00051818
2800.000,0.06677859,0.04219761,9.84824104,0.00381012,0.00007115,0.00366148
2810.000,0.00150485,0.05706861,9.88518773,-0.00018660,0.00026212,0.00088545
2820.000,0.04040120,-0.02851417,9.80466593,0.00635771,0.00170257,-0.00125963
2830.000,0.02868350,0.04188725,9.80277614,0.00193800,-0.00072367,-0.00082420
2840.000,-0.02834043,0.07921035,9.75303401,0.00181720,0.00006217,0.00071284
2850.000,-0.04706659,-0.06635639,9.75947246,0.00002797,0.00067317,0.00100602
2860.000,0.06236724,0.06404164,9.80294772,-0.00387393,0.00133315,-0.00180756
2870.000,0.02481572,-0.00052523,9.74705116,-0.00288460,-0.00011682,0.00032483
2880.000,0.11090535,0.06873700,9.82437097,-0.00138701,0.00166206,-0.00252709
2890.000,-0.04279450,-0.01124672,9.77202872,-0.00081389,-0.00116975,0.00006447
2900.000,0.00487911,0.01549616,9.78959373,0.00055773,-0.00201579,0.00160660
2910.000,-0.07272064,0.10660295,9.81852634,0.00012600,-0.00378389,-0.00375877
2920.000,0.02282960,-0.02112047,9.72854944,-0.00002464,-0.00044193,-0.00004804
2930.000,-0.00416503,-0.01616110,9.84212672,-0.00005596,0.00045112,0.00205448
2940.000,0.04530388,0.03825147,9.85606362,-0.00222221,-0.00234394,-0.00202709
2950.000,0.09018329,0.01949259,9.86161079,0.00057783,0.00248989,-0.00070274
2960.000,0.02469303,-0.09500177,9.79892399,-0.00500340,-0.00340799,-0.00150576
2970.000,-0.04338558,0.01157167,9.76709949,-0.00111546,-0.00081678,0.00023785
2980.000,0.03028404,0.04905140,9.86682850,-0.00062349,0.00209868,-0.00119097
2990.000,0.08096308,-0.08380120,9.74670000,-0.00172464,0.00095775,-0.00290985
3000.000,0.14639076,0.05047619,9.81787240,0.00077938,0.00020511,-0.00013308
3010.000,0.00160188,-0.00284301,9.70996267,0.00317655,-0.00124441,0.00428277
3020.000,-0.03861646,-0.00559238,9.77085701,-0.00045086,-0.00255403,0.00030238
3030.000,-0.02925680,0.12793657,9.79406735,-0.00215249,-0.00150351,0.00095697
3040.000,0.01390600,0.01212681,9.83612297,0.00111116,-0.00124434,0.00213808
3050.000,-0.02386414,0.06234906,9.82882811,0.00231502,0.00287260,0.00122246
3060.000,-0.06435822,-0.00537520,9.79804258,0.00272686,-0.00376160,-0.00047182
3070.000,-0.01090827,0.02546484,9.83838626,-0.00173401,0.00023845,-0.00097855
3080.000,0.02583265,0.01694577,9.81093189,-0.00033232,0.00376435,-0.00017473
3090.000,-0.10756035,0.03889463,9.83106770,0.00082758,-0.00046454,0.00031649
3100.000,-0.04923806,0.01402911,9.83904692,0.00001203,0.00089665,0.00249603
3110.000,0.05856235,0.02551507,9.82273009,0.00329479,0.00061924,0.00134486
3120.000,0.04733862,-0.01532700,9.82725016,-0.00230173,-0.00017575,0.00204670
3130.000,-0.03105566,0.05551484,9.72616444,0.00173194,0.00042322,0.00193926
3140.000,0.04083686,0.00088545,9.85491937,0.00098153,0.00240061,0.00074553
3150.000,-0.03902722,0.00449918,9.80968150,-0.00071140,0.00067168,-0.00569403
3160.000,0.02169418,-0.05237810,9.83846075,0.00076577,-0.00729683,-0.00327942
3170.000,-0.09229471,-0.03339210,9.72851350,0.00090354,0.00095506,-0.00215701
3180.000,0.04141097,0.02000654,9.82945193,-0.00142420,0.00274108,-0.00079987
3190.000,0.07365947,-0.01579708,9.83712928,0.00448584,-0.00000384,0.00098460
3200.000,0.00330112,-0.00431173,9.87198129,0.00323375,0.00026205,-0.00183582
3210.000,0.10409397,-0.02157333,9.84833598,-0.00021945,-0.00007122,-0.00256028
3220.000,0.01595585,0.01655562,9.81900889,-0.00051166,-0.00148438,0.00201825
3230.000,-0.01665390,-0.17924903,9.88339047,0.00006922,-0.00056559,-0.00004250
3240.000,-0.03473663,-0.01207786,9.79563535,0.00044624,0.00123363,-0.00182923
3250.000,-0.03919017,0.01201201,9.80443438,-0.00208318,0.00220936,-0.00065415
3260.000,-0.03582680,0.00746510,9.80499767,-0.00283368,0.00088763,0.00109760
3270.000,0.04639193,-0.06701914,9.76638053,-0.00306143,0.00045896,0.00164235
3280.000,0.03626488,-0.03198715,9.76147989,0.00074877,0.00126396,-0.00263703
3290.000,-0.02951455,-0.00504894,9.80179105,0.00066208,-0.00060524,-0.00079375
3300.000,-0.01049792,-0.05142826,9.84530795,0.00174111,0.00295855,0.00376089
3310.000,0.06631099,-0.09552143,9.72897297,0.00262962,-0.00021947,0.00087791
3320.000,0.05014285,0.07848982,9.70019105,0.00153365,0.00024236,0.00043431
3330.000,0.04077183,0.08189399,9.76352939,0.00164751,-0.00011857,-0.00128547
3340.000,0.07898339,-0.00889971,9.82238185,-0.00082895,0.00126782,0.00017940
3350.000,-0.03596167,0.05005143,9.84837261,0.00068042,0.00134016,-0.00057596
3360.000,0.08623547,0.07203037,9.80619250,0.00151250,0.00075769,-0.00229559
3370.000,0.15541893,0.06753963,9.83367580,0.00288461,-0.00100149,-0.00313585
3380.000,-0.04985772,-0.07650164,9.73439861,-0.00209009,-0.00204209,0.00027900
3390.000,-0.04668327,0.06886513,9.83100445,-0.00054770,-0.00067366,0.00141436
3400.000,-0.03066866,-0.00679345,9.79376268,0.00067975,0.00063210,0.00099492
3410.000,0.04000253,-0.04393989,9.82413432,0.00123227,-0.00421591,-0.00055331
3420.000,0.01500429,-0.04244340,9.88605030,-0.00436042,0.00007212,0.00016660
3430.000,-0.01477856,-0.04963751,9.84929400,0.00209106,0.00237527,0.00058171
3440.000,0.00272478,0.02042142,9.74741601,-0.00100072,0.00097032,-0.00087938
3450.000,0.04062081,0.10862142,9.74350831,-0.00000279,0.00197227,-0.00093879
3460.000,0.01771044,-0.03926548,9.94113030,0.00161136,0.00135480,-0.00173254
3470.000,0.06198162,0.01410537,9.74525663,0.00194779,0.00139713,0.00038119
3480.000,-0.04930280,0.03731373,9.73852539,-0.00152465,-0.00171841,-0.00089770
3490.000,-0.06655569,0.00044156,9.81332083,0.00108519,-0.00191125,0.00105294
3500.000,0.01900157,-0.02197626,9.85265733,-0.00248351,-0.00040814,0.00039750
3510.000,-0.04309074,0.03133222,9.81735603,0.00489026,-0.00275463,0.00312251
3520.000,0.03003245,0.05909990,9.78388338,0.00029968,0.00082234,0.00041546
3530.000,-0.03305388,-0.08441969,9.70569990,0.00088945,-0.00030737,0.00308715
3540.000,-0.00879871,-0.00537614,9.75234584,-0.00091294,0.00226447,-0.00110941
3550.000,-0.04355498,0.07617269,9.85044199,-0.00012050,-0.00214393,0.00108965
3560.000,-0.06308034,-0.02211740,9.82695013,0.00289025,-0.00015471,-0.00021389
3570.000,-0.03132255,-0.04043477,9.78973771,-0.00222923,-0.00045859,-0.00300543
3580.000,0.05453304,0.05907007,9.76987766,-0.00182576,0.00045357,0.00281845
3590.000,0.02302755,-0.00032059,9.75623823,0.00561842,-0.00117317,0.00305130
3600.000,-0.01485373,-0.06321171,9.86480276,0.00048750,-0.00030250,0.00104615
3610.000,0.07762360,-0.02052865,9.77419603,0.00012383,0.00022079,-0.00063543
3620.000,0.05272972,0.06080745,9.75092943,-0.00279622,-0.00308725,0.00148799
3630.000,-0.00740223,-0.00294692,9.76811119,-0.00055340,-0.00119218,0.00019877
3640.000,0.01929908,-0.03499727,9.77963696,0.00158986,0.00036073,-0.00113009
3650.000,-0.00506714,-0.07445311,9.70382734,0.00245259,0.00315837,0.00117139
3660.000,0.04591362,-0.03701615,9.91339320,0.00194733,0.00248392,0.00244274
3670.000,0.09859190,-0.02532393,9.92360265,0.00122820,0.00119669,0.00122212
3680.000,0.04687873,-0.03226569,9.67755801,-0.00219468,0.00140145,-0.00252858
3690.000,0.03440776,0.00156479,9.82821808,-0.00158920,0.00260713,0.00186374
3700.000,-0.01144181,-0.05719285,9.78529867,0.00297480,-0.00054335,-0.00212095
3710.000,0.03533186,-0.01771877,9.78862911,-0.00048087,0.00020406,0.00034178
3720.000,-0.07596935,0.00456002,9.75105340,0.00226736,-0.00072254,0.00088812
3730.000,0.04592631,-0.03670505,9.79186480,-0.00197725,0.00090063,0.00019051
3740.000,0.10819918,-0.01532871,9.78462126,-0.00149963,-0.00047166,-0.00018382
3750.000,0.02928110,-0.08926309,9.86919047,-0.00054031,0.00354268,-0.00001212
3760.000,0.04969700,0.02622259,9.63779513,-0.00048779,-0.00419490,-0.00160340
3770.000,-0.01297058,-0.06364331,9.86285534,-0.00052615,-0.00137171,0.00294867
3780.000,0.05262805,0.01940049,9.74649444,-0.00032988,0.00257689,0.00030890
3790.000,0.07471471,-0.01311306,9.89691855,0.00007446,-0.00017759,0.00019332
3800.000,0.01326935,0.02534040,9.78363478,0.00343759,-0.00463922,-0.00381714
3810.000,0.07034778,0.03042169,9.87879458,-0.00108634,0.00002906,0.00156639
3820.000,0.00887706,-0.00235193,9.83640651,0.00094617,-0.00076849,0.00222450
3830.000,0.07212703,0.05083672,9.81356119,0.00206039,0.00036812,0.00211196
3840.000,-0.09286093,0.04051930,9.73471476,0.00054529,-0.00112297,0.00158250
3850.000,0.00175029,-0.00578831,9.73576158,0.00022123,0.00000268,0.00313300
3860.000,0.01862515,0.10771589,9.79101972,-0.00490174,-0.00283537,-0.00218683
3870.000,0.03829398,0.11778449,9.84978066,-0.00072652,-0.00050922,-0.00282712
3880.000,-0.03224217,0.01185074,9.83068901,-0.00197032,-0.00172168,0.00510259
3890.000,0.07169066,0.06070252,9.66815582,0.00360348,-0.00082350,-0.00053920
3900.000,-0.04281023,-0.00350134,9.75588565,-0.00229841,-0.00381626,-0.00004558
3910.000,-0.18500458,-0.03628092,9.80646947,-0.00199570,-0.00016970,-0.00301202
3920.000,-0.02626423,-0.04984716,9.80872323,-0.00152395,0.00029725,0.00092102
3930.000,0.01715441,-0.02342986,9.87523719,0.00083494,-0.00264098,0.00189818
3940.000,0.00288572,-0.04357568,9.75042313,-0.00160042,0.00126572,0.00016774
3950.000,-0.01064849,0.05567103,9.76546556,-0.00275277,-0.00063240,0.00091994
3960.000,0.02979397,0.00472785,9.90631165,0.00122593,-0.00028198,0.00325298
3970.000,0.01951257,-0.03491131,9.84346848,0.00201502,-0.00051331,0.00168986
3980.000,0.03850110,-0.01985055,9.74845021,0.00386759,0.00392097,-0.00226618
3990.000,0.02680176,0.00317576,9.73082250,-0.00185307,0.00296984,-0.00192655
4000.000,0.01272605,-0.03184964,9.73086990,-0.00264508,-0.00097239,0.00103066
4010.000,-0.01760582,0.06414594,9.86705308,-0.00020479,-0.00130113,-0.00115802
4020.000,0.04733761,0.01346164,9.83643986,-0.00142467,-0.00175902,0.00475386
4030.000,0.00493223,-0.05525254,9.76137491,0.00059502,0.00177352,-0.00078737
4040.000,-0.03035905,0.07006795,9.86048454,-0.00037191,-0.00142711,-0.00511244
4050.000,-0.05399388,0.00266956,9.78651964,-0.00275602,-0.00362124,-0.00430841
4060.000,-0.00775503,-0.02680214,9.87693458,-0.00239072,0.00264991,0.00010247
4070.000,-0.00094533,0.01080784,9.81786291,0.00258113,0.00082197,0.00175664
4080.000,-0.05138851,0.00542768,9.85976584,-0.00180179,0.00104790,0.00164913
4090.000,0.07363455,-0.05739075,9.73071994,-0.00115329,0.00111908,0.00132426
4100.000,0.00310673,0.05545938,9.82462982,-0.00109911,-0.00224554,-0.00217620
4110.000,0.03401480,-0.06801245,9.77805063,0.00017301,0.00065402,-0.00139282
4120.000,-0.10980562,-0.00712440,9.69843903,0.00005317,0.00114107,0.00142879
4130.000,0.06663309,0.07774107,9.81368217,0.00310376,0.00255396,-0.00181001
4140.000,-0.07562866,0.01878563,9.89960663,0.00336717,-0.00106195,0.00228249
4150.000,0.02378677,0.05924920,9.78239173,0.00013597,-0.00082430,-0.00342248
4160.000,-0.04356050,-0.00354310,9.71031473,-0.00034313,-0.00311877,0.00212767
4170.000,0.11320443,0.00698250,9.84998865,0.00303359,-0.00159382,0.00079718
4180.000,-0.02307543,-0.07715432,9.87794074,-0.00145078,-0.00125697,0.00174239
4190.000,-0.05620501,0.01744194,9.82880424,-0.00007708,0.00347930,-0.00077091
4200.000,0.00369757,-0.03922921,9.79916839,0.00199867,0.00019483,0.00178527
4210.000,-0.04750254,0.04045888,9.83522735,-0.00089432,-0.00009912,-0.00003713
4220.000,-0.00107012,-0.02841757,9.91201589,-0.00167211,0.00132416,0.00149452
4230.000,-0.06510320,-0.07723065,9.80254970,0.00118711,0.00307393,0.00309287
4240.000,-0.01290237,0.05487912,9.83895582,-0.00074989,0.00074610,-0.00105288
4250.000,0.00147628,0.02501689,9.83075829,0.00004671,-0.00119950,0.00343461
4260.000,0.10517784,0.01266817,9.77259614,0.00072740,-0.00043606,0.00258186
4270.000,0.00992505,-0.13093397,9.80501762,-0.00434123,-0.00402821,0.00178644
4280.000,0.05464912,0.03010921,9.82157780,0.00012094,0.00050089,-0.00245789
4290.000,0.03246196,0.05516283,9.87791167,-0.00004647,0.00400702,0.00184344
4300.000,0.02237280,-0.01580557,9.69097390,0.00033941,-0.00087811,-0.00059396
4310.000,0.04890867,0.02576013,9.81428297,-0.00425840,0.00051528,0.00188629
4320.000,-0.03440257,0.04825760,9.79378818,-0.00315124,-0.00132283,-0.00211948
4330.000,-0.00172111,-0.00279943,9.82914259,-0.00193070,0.00010696,-0.00397322
4340.000,-0.05743160,0.02812759,9.77060558,0.00122854,0.00150771,-0.00030649
4350.000,-0.03429019,0.04426200,9.75689858,-0.00496142,-0.00199284,0.00266165
4360.000,0.04417212,0.00506834,9.72423616,-0.00555599,-0.00069505,-0.00216403
4370.000,0.06822379,0.01551269,9.82635629,0.00160914,-0.00135023,0.00100400
4380.000,0.05036212,0.07496104,9.81670134,0.00113092,0.00367245,-0.00020967
4390.000,0.03086437,0.01855930,9.78950661,0.00075209,-0.00297011,0.00257717
4400.000,-0.07917182,0.01074610,9.87559689,-0.00152102,-0.00112151,0.00015196
4410.000,0.02916665,-0.05337116,9.86152608,-0.00312577,0.00045754,0.00213151
4420.000,-0.01547349,-0.10460129,9.85754519,0.00058587,-0.00317780,-0.00005093
4430.000,-0.04726903,0.08903642,9.86403867,0.00148406,-0.00375598,-0.00195273
4440.000,-0.01138996,0.02296799,9.92784593,0.00175309,0.00054019,0.00102086
4450.000,0.05000035,0.01191000,9.95110770,0.00371899,0.00093711,0.00151280
4460.000,0.00587905,0.02909074,9.75983934,0.00542149,-0.00042761,-0.00139864
4470.000,-0.08373594,-0.01439011,9.80857040,0.00085559,0.00087798,-0.00085620
4480.000,0.01646318,-0.07098855,9.83968372,-0.00206479,0.00461969,0.00085102
4490.000,-0.04151928,0.03043672,9.85339632,-0.00146457,0.00183186,-0.00002085
4500.000,-0.01977545,-0.04819095,9.88383247,-0.00050576,0.00112455,-0.00238623
4510.000,0.04364560,0.00759882,9.88007139,0.00070525,0.00382591,0.00112999
4520.000,0.00416309,-0.03102536,9.75656490,-0.00075242,-0.00101421,-0.00062295
4530.000,-0.00538996,0.03858602,9.87613796,-0.00050793,-0.00075561,0.00203045
4540.000,0.00117551,0.06065625,9.79593653,-0.00346642,0.00172400,-0.00056146
4550.000,-0.03907990,-0.06531566,9.78133800,0.00075390,-0.00225398,0.00285527
4560.000,-0.06343287,0.10047558,9.82861482,0.00249127,0.00191918,-0.00283142
4570.000,-0.00478074,0.08610009,9.74153663,0.00165824,0.00080971,-0.00301236
4580.000,-0.00685714,0.09998369,9.79944797,-0.00004859,0.00072907,0.00131041
4590.000,0.12234069,0.03928024,9.87194630,0.00035452,0.00058246,0.00314557
4600.000,0.06674474,0.00008012,9.78223942,0.00245207,-0.00573411,-0.00043645
4610.000,-0.00577202,-0.04934663,9.80335186,-0.00032930,-0.00350420,0.00038687
4620.000,-0.00022030,0.08446175,9.83631379,0.00249752,-0.00217314,0.00087138
4630.000,0.11813088,-0.10797720,9.74579781,-0.00183165,-0.00134382,0.00315344
4640.000,-0.01776727,0.07462472,9.80117114,-0.00108512,0.00092442,-0.00354371
4650.000,-0.07339134,-0.01225622,9.74677009,0.00372464,0.00120530,-0.00016621
4660.000,-0.06968129,0.09994139,9.78906956,0.00115109,-0.00281964,0.00256392
4670.000,0.00865764,-0.00464782,9.79407522,-0.00064797,-0.00040814,-0.00078439
4680.000,-0.04203305,-0.01553173,9.82351177,-0.00116130,0.00138934,0.00071080
4690.000,0.07093177,0.04737178,9.74569666,0.00130350,-0.00001759,0.00122545
4700.000,0.04942662,0.02377190,9.77541395,-0.00083770,0.00445946,-0.00293675
4710.000,0.00910485,0.02861436,9.80900265,0.00252187,0.00273581,-0.00150515
4720.000,0.02401217,-0.04314755,9.90629160,0.00445855,0.00199098,0.00214150
4730.000,-0.09646424,0.02889256,9.82498817,0.00005604,-0.00043445,-0.00021954
4740.000,0.03214717,-0.03541852,9.86510985,0.00078106,0.00280237,0.00056196
4750.000,-0.00539903,-0.05931075,9.75190948,-0.00182289,0.00164885,0.00204168
4760.000,0.00623525,-0.07982608,9.89667530,0.00130932,0.00149100,-0.00034242
4770.000,0.05244606,0.09134222,9.89272117,-0.00185798,-0.00173639,-0.00307145
4780.000,-0.01759532,-0.04346647,9.67276137,0.00047390,-0.00016690,-0.00068045
4790.000,-0.02031171,0.08828264,9.76525747,-0.00591124,-0.00249463,0.00244125
4800.000,-0.01049605,-0.02772851,9.82539976,-0.00132925,0.00072118,-0.00258177
4810.000,0.06430423,-0.07696053,9.73926120,0.00287741,-0.00028806,0.00077972
4820.000,0.07433100,0.03665334,9.79368097,0.00465156,0.00303288,-0.00041345
4830.000,0.08535414,-0.06825144,9.85321067,-0.00118644,-0.00065109,0.00121951
4840.000,-0.00341191,0.03032719,9.68729239,-0.00021045,-0.00079049,0.00313411
4850.000,-0.01303517,0.03683984,9.80348349,-0.00022842,0.00459918,0.00038126
4860.000,0.06276489,0.06109025,9.75872182,0.00357064,0.00071464,0.00212573
4870.000,0.04119963,-0.04963313,9.80935077,-0.00144922,-0.00170752,0.00111925
4880.000,0.03280641,-0.04176415,9.84599631,0.00197711,0.00008051,-0.00237293
4890.000,-0.02526779,-0.02903488,9.84198255,-0.00272052,-0.00285427,-0.00333536
4900.000,-0.04179865,-0.04434177,9.85870780,0.00021897,0.00225009,0.00017307
4910.000,0.00542786,-0.07270597,9.84943207,-0.00452083,-0.00038152,-0.00012568
4920.000,-0.02033006,-0.07015067,9.68128425,0.00419200,-0.00291428,-0.00058142
4930.000,0.04517071,-0.04299590,9.74445776,0.00341171,0.00089996,0.00132658
4940.000,0.03197014,0.04028958,9.76729485,0.00022917,0.00065989,0.00175518
4950.000,0.04563203,0.10274465,9.87398316,-0.00161897,0.00175612,-0.00254603
4960.000,0.05955285,0.01570646,9.78446409,0.00065674,0.00035748,-0.00103260
4970.000,-0.00279430,0.02203708,9.74377440,-0.00004537,-0.00124508,-0.00194341
4980.000,-0.03846910,-0.07138751,9.81840933,-0.00070723,-0.00220798,0.00084559
4990.000,0.00415270,-0.03263543,9.84767496,-0.00230017,0.00142395,-0.00216296
5000.000,-0.05223002,-0.03449174,9.84567632,-0.00113259,-0.00124921,0.00285029
5010.000,0.04644079,-0.03978631,9.81825213,0.00066058,-0.00042347,0.00119744
5020.000,-0.03894036,-0.00986698,9.81384187,-0.00421438,-0.00008627,0.00419502
5030.000,0.02801831,0.01587795,9.82030812,0.00026469,0.00013583,0.00129625
5040.000,-0.05392492,0.01941383,9.83420327,0.00179121,-0.00399493,-0.00316467
5050.000,0.03444673,-0.03597601,9.85242928,0.00042058,-0.00142975,0.00282403
5060.000,-0.06586174,-0.02154091,9.79287405,-0.00063035,-0.00386906,-0.00233606
5070.000,-0.06312045,-0.01453555,9.81772405,-0.00549935,-0.00046825,-0.00017682
5080.000,-0.09128861,-0.01973442,9.71922995,-0.00084893,0.00215776,0.00259698
5090.000,0.10207694,0.01062456,9.81294146,-0.00034078,-0.00426939,0.00143448
5100.000,0.01160367,0.03022603,9.85555774,0.00111072,0.00061878,0.00216286
5110.000,-0.07817770,0.06550888,9.86894126,-0.00232966,0.00401751,-0.00171897
5120.000,-0.00331733,-0.00593643,9.65151196,0.00149845,-0.00337470,-0.00166067
5130.000,-0.06219956,0.02594246,9.86668087,0.00303274,-0.00052180,0.00187968
5140.000,0.03644185,-0.00378575,9.90294364,0.00047391,-0.00020992,0.00292751
5150.000,0.05025878,-0.01969132,9.91575553,-0.00047332,-0.00356148,-0.00140670
5160.000,-0.05480836,-0.07359201,9.78559473,0.00110238,0.00079102,-0.00293437
5170.000,-0.03793201,-0.01824658,9.84655453,-0.00144869,-0.00116344,-0.00053122
5180.000,-0.00169898,-0.00041484,9.80959074,-0.00275183,-0.00125674,-0.00125754
5190.000,-0.11561627,-0.07576303,9.78738444,0.00154307,0.00161824,-0.00009198
5200.000,-0.04214644,-0.01158937,9.87685642,-0.00078408,0.00027985,-0.00143354
5210.000,-0.00372247,-0.06610841,9.76699501,-0.00229366,-0.00188044,-0.00107006
5220.000,0.08552880,0.07662470,9.83644387,-0.00232695,0.00032412,0.00165895
5230.000,-0.07812415,0.01534025,9.82583485,-0.00317420,0.00005026,-0.00024039
5240.000,0.00127701,-0.02850055,9.78851845,0.00068302,-0.00002588,-0.00270777
5250.000,-0.03198575,-0.05725370,9.87494939,-0.00252478,0.00005885,0.00225695
5260.000,0.04411569,-0.01424647,9.82425892,-0.00442837,0.00069145,0.00257858
5270.000,0.01948504,0.11714418,9.85027843,-0.00030605,0.00110040,-0.00120686
5280.000,0.04173848,0.00189905,9.78492880,-0.00023873,-0.00324183,-0.00448946
5290.000,0.06913551,0.03261361,9.76517290,0.00188553,-0.00196999,-0.00071189
5300.000,0.02269333,0.04186930,9.70185845,-0.00277288,-0.00281994,-0.00014856
5310.000,-0.04611934,0.01813824,9.71042693,-0.00145915,0.00075594,0.00110413
5320.000,-0.08830656,-0.01352309,9.83122721,0.00064170,0.00047720,0.00335453
5330.000,0.02688919,0.07911998,9.81076319,-0.00213519,-0.00010987,0.00246431
5340.000,-0.01863264,-0.06536798,9.78741862,0.00252908,-0.00284353,-0.00042585
5350.000,0.03537647,0.03763611,9.81988095,0.00271624,0.00101616,0.00058932
5360.000,0.02735575,0.06381918,9.81041359,-0.00043537,-0.00076760,0.00077516
5370.000,0.06836594,-0.03633234,9.80298545,-0.00050475,-0.00008516,0.00035585
5380.000,-0.02404166,0.03963526,9.75592578,-0.00135614,0.00106426,0.00602707
5390.000,-0.01608827,-0.09298382,9.83636880,-0.00355397,0.00064803,-0.00132188
5400.000,0.06233951,0.04553540,9.84728138,0.00115481,0.00009311,0.00172213
5410.000,0.04197002,0.03498469,9.83736978,0.00235101,0.00038484,0.00246245
5420.000,0.03394567,-0.03278411,9.79664033,-0.00468860,0.00318090,0.00094839
5430.000,0.00351216,-0.01678526,9.72833452,0.00215569,-0.00243975,-0.00146336
5440.000,-0.06175045,0.01149881,9.85193880,0.00029188,-0.00003408,0.00076423
5450.000,0.00046710,0.13824109,9.76066188,0.00216903,-0.00353044,0.00214564
5460.000,0.02224711,0.06456013,9.85993386,0.00001656,-0.00040756,-0.00274432
5470.000,0.03275334,0.05351270,9.80941972,0.00100610,-0.00482822,0.00149461
5480.000,0.08314409,0.06415796,9.76403862,-0.00298421,0.00010692,-0.00004061
5490.000,0.01607840,-0.07736483,9.88273945,0.00233908,-0.00035731,-0.00119064
5500.000,0.01121157,0.06743864,9.80118212,-0.00101321,0.00254577,0.00127013
5510.000,-0.09281337,0.13186838,9.81320443,-0.00077126,-0.00047289,-0.00293692
5520.000,-0.05001043,0.05728811,9.90844286,0.00077695,-0.00351963,0.00170093
5530.000,-0.01012191,-0.00496212,9.81855231,0.00025724,0.00477390,-0.00200304
5540.000,-0.05554853,-0.03453337,9.89574629,-0.00020532,0.00359658,0.00257991
5550.000,-0.00661032,-0.04187785,9.78404791,-0.00139242,0.00044793,0.00020102
5560.000,0.05364118,-0.09879484,9.81938249,0.00056391,-0.00139736,0.00001827
5570.000,0.12311094,0.10155313,9.83531014,-0.00319610,0.00027025,0.00109684
5580.000,0.06582213,0.06534131,9.80035740,-0.00045484,-0.00323010,0.00217375
5590.000,0.04623969,0.08942915,9.74346189,0.00072905,-0.00145203,-0.00036463
5600.000,0.02883254,0.01807377,9.81180822,-0.00300134,-0.00205082,-0.00087917
5610.000,0.00073167,0.01158350,9.82242861,0.00245684,-0.00127901,0.00147677
5620.000,0.05593076,0.02382573,9.79775617,-0.00107663,0.00049590,-0.00008657
5630.000,-0.04199607,-0.02362213,9.81970831,0.00174611,-0.00106962,-0.00294896
5640.000,-0.03530354,0.04729385,9.82815276,-0.00276390,-0.00106375,-0.00230215
5650.000,0.05717637,-0.03194096,9.76509662,0.00082042,-0.00093154,0.00494506
5660.000,0.05680286,0.00649770,9.79652414,-0.00347543,0.00040727,-0.00206019
5670.000,0.03493302,0.03307246,9.74386181,-0.00098680,0.00028284,-0.00445516
5680.000,0.06923226,-0.02052035,9.89165090,0.00047365,0.00380581,-0.00071142
5690.000,-0.06667743,0.01586994,9.79736894,0.00051962,0.00204984,-0.00013259
5700.000,-0.09876173,0.03291040,9.71045315,-0.00116192,-0.00455147,0.00147716
5710.000,-0.01458334,0.05521377,9.78014820,-0.00022634,-0.00202537,0.00044824
5720.000,-0.04518671,0.04001782,9.79417410,-0.00116736,-0.00105685,0.00140749
5730.000,-0.02025298,0.06374962,9.74828606,-0.00267676,0.00209463,-0.00260061
5740.000,-0.02298036,0.04332235,9.74505263,-0.00132540,0.00384589,0.00244933
5750.000,0.08876736,-0.01084237,9.85037637,0.00019521,-0.00188106,-0.00086407
5760.000,0.04362176,-0.00761440,9.78269939,0.00014655,0.00007505,0.00001258
5770.000,-0.00214823,0.03563421,9.75732876,-0.00006167,-0.00042875,-0.00268978
5780.000,-0.06016293,0.07421014,9.76990725,-0.00103302,0.00182925,-0.00254264
5790.000,0.01770419,-0.01011021,9.79875672,-0.00037911,-0.00163951,0.00041657
5800.000,0.07151949,-0.00425846,9.78880869,-0.00077727,0.00295479,0.00120688
5810.000,-0.01348578,-0.02517292,9.77314547,-0.00262361,0.00134246,-0.00135574
5820.000,-0.02497234,0.08316051,9.84222444,-0.00115399,0.00062764,-0.00079009
5830.000,-0.01725983,0.04908278,9.72729031,0.00178571,-0.00154902,-0.00104465
5840.000,0.06878392,0.06475779,9.91846670,-0.00131274,-0.00113128,0.00239146
5850.000,0.05057757,0.02186173,9.87120702,0.00125759,0.00341989,0.00472820
5860.000,-0.03129047,-0.01977082,9.80343776,-0.00206143,0.00014084,-0.00215966
5870.000,0.06844408,-0.04279392,9.75854692,-0.00155521,-0.00126017,-0.00192173
5880.000,0.01182690,0.03587652,9.77149597,-0.00210377,-0.00028857,-0.00224103
5890.000,0.03352090,0.06841997,9.86667308,0.00168425,-0.00183551,0.00581137
5900.000,0.01766464,-0.00452989,9.89343118,-0.00090277,0.00014404,-0.00239862
5910.000,0.00077020,0.04701773,9.90456407,0.00341218,0.00223900,0.00078571
5920.000,0.04176340,-0.04985456,9.74469886,-0.00269361,0.00042133,-0.00205116
5930.000,-0.01488147,0.03547496,9.82888929,0.00292471,0.00161839,0.00038240
5940.000,0.11035410,0.02175281,9.79027794,-0.00487275,-0.00196683,0.00156686
5950.000,-0.05666711,0.05902187,9.80634694,0.00242577,0.00221834,-0.00299287
5960.000,-0.07530699,0.00111303,9.75686309,0.00060310,0.00203103,-0.00312570
5970.000,-0.02128188,0.00030960,9.76139110,-0.00001581,0.00054768,-0.00041074
5980.000,-0.02438121,-0.03720599,9.77078554,-0.00370432,-0.00065140,-0.00046401
5990.000,-0.05040103,-0.02413823,9.76191508,-0.00029614,-0.00112694,-0.00069562
6000.000,0.02932921,0.01004000,9.86638576,-0.00007941,0.00088491,-0.00041864
6010.000,0.09433517,0.03386625,9.82912935,-0.00081930,0.00018471,-0.00365182
6020.000,0.03701686,0.02332944,9.80915997,0.00095407,-0.00000113,0.00026921
6030.000,-0.00146629,-0.05108350,9.84859598,0.00192147,-0.00390563,-0.00375805
6040.000,-0.00156474,0.07247595,9.85240680,0.00054761,-0.00001423,0.00052977
6050.000,-0.03129758,0.06233455,9.67861290,-0.00092425,0.00132871,0.00205449
6060.000,0.09651129,-0.06692226,9.83140561,0.00096796,-0.00052166,-0.00402637
6070.000,0.02137081,0.05618584,9.79021516,0.00153847,0.00244346,0.00147792
6080.000,-0.10727592,-0.01636440,9.79569188,-0.00175928,0.00134759,0.00190966
6090.000,-0.10245960,0.00226858,9.75285743,0.00311763,-0.00175222,-0.00026452
6100.000,0.03245426,-0.01230399,9.90470474,0.00149454,0.00011482,-0.00204648
6110.000,-0.01280893,0.02151956,9.79599642,0.00082923,0.00115732,0.00036389
6120.000,-0.08116341,-0.01023565,9.84432067,0.00043917,-0.00051741,0.00314430
6130.000,0.03009949,-0.01466339,9.73381219,-0.00180138,-0.00117464,0.00020950
6140.000,0.03222293,0.02097433,9.84882054,0.00175791,-0.00299475,-0.00243328
6150.000,-0.01370561,-0.08421874,9.83333801,-0.00407546,0.00006539,-0.00204952
6160.000,-0.00045714,0.06958419,9.80808665,-0.00076910,0.00132276,-0.00109622
6170.000,-0.00227334,0.02086272,9.77680345,0.00046256,-0.00059868,0.00153087
6180.000,-0.03225679,-0.00489476,9.76062968,0.00095026,-0.00138387,-0.00015089
6190.000,-0.01145477,0.09697807,9.85878169,0.00208749,0.00078675,-0.00260774
6200.000,0.01540190,0.07758386,9.76540520,0.00131124,-0.00216922,0.00301098
6210.000,0.12452199,-0.02302513,9.90684029,0.00204820,0.00057977,0.00050019
6220.000,0.09997015,-0.08766149,9.88000461,-0.00041806,0.00135705,-0.00055607
6230.000,-0.01419546,-0.02839842,9.83288191,0.00047114,0.00174387,-0.00093836
6240.000,-0.05039577,0.02509985,9.75961028,-0.00123239,-0.00238873,-0.00194393
6250.000,0.00885396,0.06676813,9.82597590,-0.00365679,0.00145966,0.00380260
6260.000,-0.01798958,0.02707056,9.73632599,0.00285066,-0.00325217,0.00163424
6270.000,-0.04194304,-0.02151350,9.84599251,0.00284421,-0.00091362,0.00038719
6280.000,0.02028994,0.02675832,9.80528087,-0.00401579,0.00053347,-0.00194307
6290.000,-0.03940498,0.07440585,9.77176033,0.00039927,-0.00312241,0.00126952
6300.000,0.02095195,-0.00560523,9.83479966,0.00204903,-0.00156636,-0.00209029
6310.000,-0.03027435,0.05263386,9.87556390,-0.00431205,-0.00053283,-0.00097989
6320.000,0.04956615,0.00788127,9.78489374,-0.00310204,0.00090604,-0.00071689
6330.000,0.14110559,-0.04958123,9.85071148,-0.00215147,-0.00110914,0.00232540
6340.000,0.01663924,-0.00312687,9.81590815,0.00120587,-0.00026005,0.00142075
6350.000,-0.02551077,0.02135278,9.82249122,-0.00232182,0.00006474,0.00047693
6360.000,0.13388266,0.05354111,9.83244414,-0.00093967,0.00087092,-0.00137885
6370.000,0.02877795,0.09197688,9.75812867,0.00101964,0.00110372,-0.00565256
6380.000,-0.00913664,-0.09535694,9.83458869,0.00238061,-0.00609527,-0.00105060
6390.000,0.04240869,-0.04978000,9.87840400,0.00205070,-0.00063457,-0.00275114
6400.000,-0.03594400,-0.01712341,9.81262830,-0.00218747,0.00205381,-0.00366204
6410.000,0.07970982,-0.04290989,9.82121236,0.00225798,-0.00011020,-0.00220409
6420.000,0.03874189,0.02842351,9.83692005,-0.00116623,-0.00203445,0.00191288
6430.000,0.03807501,-0.02773614,9.89103899,0.00146486,-0.00343832,-0.00062703
6440.000,-0.00555747,-0.01219241,9.87403128,-0.00172637,0.00258702,-0.00252032
6450.000,-0.03152834,0.01601391,9.77050827,0.00320846,-0.00006659,-0.00214426
6460.000,0.12596179,0.11543273,9.80113795,-0.00135455,-0.00160324,-0.00236991
6470.000,0.02599286,0.00025999,9.78922003,0.00018965,-0.00245583,-0.00418168
6480.000,0.00598157,-0.00203007,9.73061663,-0.00075935,-0.00360571,-0.00132555
6490.000,0.01315117,-0.00211464,9.82226002,-0.00181821,-0.00174243,0.00418041
6500.000,-0.00387589,-0.01801697,9.85039550,0.00011282,0.00049074,-0.00337460
6510.000,0.02665672,0.06980236,9.83138649,-0.00130793,0.00043061,-0.00187114
6520.000,-0.00988033,0.03083843,9.70761934,0.00181613,-0.00240539,-0.00039510
6530.000,0.10518399,0.01371901,9.91587279,-0.00117210,0.00032864,-0.00110364
6540.000,-0.04346725,-0.05588227,9.82494166,-0.00054179,-0.00047226,-0.00129173
6550.000,0.01812674,0.01691224,9.81594131,0.00097019,0.00047678,-0.00000047
6560.000,-0.03140586,-0.07426779,9.82080753,-0.00086092,0.00159309,-0.00029521
6570.000,-0.06412960,-0.06885031,9.78761841,-0.00061339,0.00020938,0.00356933
6580.000,0.02153295,0.09938796,9.85561297,-0.00268071,0.00153971,-0.00361048
6590.000,0.07166088,0.03268308,9.82499269,0.00043455,0.00315017,0.00115290
6600.000,0.12528952,-0.06614278,9.78598848,0.00034125,-0.00112090,0.00023736
6610.000,-0.01675899,0.04467785,9.75771116,-0.00050413,-0.00157195,-0.00040479
6620.000,0.03817148,0.02898249,9.84731737,0.00039676,-0.00153443,-0.00143791
6630.000,0.03976115,0.07691598,9.80418953,-0.00272049,0.00078145,0.00126499
6640.000,0.02650790,-0.03682746,9.75841025,0.00046332,0.00193034,0.00034977
6650.000,0.08824144,-0.04060594,9.83871560,0.00078402,0.00060767,-0.00000935
6660.000,0.02655214,0.05874904,9.72373997,-0.00106164,0.00442831,-0.00073049
6670.000,0.04456035,-0.00290160,9.77665454,-0.00133176,0.00086802,0.00067681
6680.000,-0.01254088,0.05183854,9.84321203,-0.00280958,0.00224536,-0.00001560
6690.000,-0.00639617,-0.05695537,9.75322277,-0.00222186,0.00237757,0.00142382
6700.000,0.03765151,-0.06388712,9.80074228,-0.00252908,0.00355437,0.00148974
6710.000,0.13405361,0.02297804,9.84376246,-0.00002039,0.00318044,0.00049042
6720.000,-0.05305176,-0.06136508,9.84644110,-0.00005617,-0.00132060,0.00133521
6730.000,-0.01411760,0.05868107,9.81380666,0.00095321,0.00002936,-0.00140879
6740.000,0.17781814,-0.02361599,9.82610658,0.00025986,-0.00013960,-0.00249609
6750.000,-0.03970728,0.05660400,9.83367562,-0.00294362,0.00113031,-0.00503325
6760.000,-0.04305949,-0.01086424,9.88024174,0.00041082,-0.00095617,0.00278669
6770.000,0.06758546,-0.06571978,9.78835152,-0.00098694,0.00131897,-0.00062396
6780.000,0.09606984,-0.00335889,9.82082113,0.00022750,0.00147367,-0.00075558
6790.000,0.05634660,-0.06160809,9.76466513,0.00199311,-0.00198740,0.00075839
6800.000,-0.01118495,0.06523118,9.86263827,0.00184528,0.00132007,0.00400176
6810.000,0.04098832,-0.00195800,9.86812849,-0.00152688,-0.00275830,-0.00182014
6820.000,-0.00263226,0.03389840,9.85725195,0.00132089,0.00099585,0.00037270
6830.000,0.08984100,0.00218377,9.79351949,-0.00224591,0.00153373,-0.00228156
6840.000,0.06975377,0.07359263,9.78448128,0.00231790,0.00571488,0.00090041
6850.000,-0.05025169,0.06595172,9.72956363,0.00116622,-0.00098572,-0.00345327
6860.000,-0.07964007,-0.00841476,9.81177199,-0.00120544,-0.00218579,-0.00272719
6870.000,-0.05299761,0.01109322,9.81997350,0.00344472,0.00054573,0.00092584
6880.000,-0.02401939,0.10167321,9.82813806,-0.00061804,-0.00034574,0.00209522
6890.000,0.05642445,-0.07281065,9.73340791,-0.00006467,0.00106139,-0.00022624
6900.000,0.02300313,0.09274288,9.75615321,-0.00068431,-0.00281383,-0.00379008
6910.000,0.00716883,-0.06175481,9.77071887,-0.00052312,0.00011299,-0.00240720
6920.000,0.00965557,-0.02463056,9.74137380,-0.00006895,0.00010751,-0.00414731
6930.000,-0.06639588,-0.09430040,9.83047919,-0.00183025,0.00081453,0.00093847
6940.000,0.02987905,0.02962767,9.76119121,-0.00230735,0.00031690,0.00220880
6950.000,0.05029756,0.03533893,9.80701472,0.00155415,-0.00019057,-0.00077232
6960.000,-0.00784144,-0.03245577,9.81625809,-0.00125869,0.00093564,0.00055348
6970.000,0.08086239,0.05689283,9.79383948,0.00125881,0.00026375,0.00180043
6980.000,0.02693107,-0.05507150,9.84315336,0.00018919,0.00156938,0.00190418
6990.000,-0.04154286,0.03451278,9.95510361,-0.00160905,-0.00361629,0.00324916
7000.000,-0.02850062,0.14614017,9.83118177,0.00051332,-0.00342897,-0.00126584
7010.000,-0.03748128,-0.03977281,9.92489778,0.00154375,-0.00055935,-0.00086269
7020.000,0.02464943,-0.02830764,9.79647697,0.00280176,-0.00209457,-0.00143525
7030.000,0.02153879,-0.00043603,9.82394496,0.00042277,0.00078091,0.00115337
7040.000,0.08868054,-0.05639853,9.83888152,0.00182248,0.00039716,0.00113908
7050.000,-0.00364488,-0.02495227,9.86025871,-0.00051842,0.00012540,0.00037501
7060.000,-0.07307128,-0.11832167,9.81787665,0.00043020,0.00154508,0.00126985
7070.000,-0.00690899,-0.06764236,9.72112238,0.00008843,-0.00161825,0.00029452
7080.000,0.09653167,0.02315074,9.80763229,-0.00005604,0.00038636,0.00457185
7090.000,0.10976225,0.05110312,9.89511384,-0.00104755,0.00084458,0.00229534
7100.000,-0.05899770,-0.06086963,9.83750376,0.00019600,0.00467569,-0.00059805
7110.000,0.02072496,0.06248310,9.72511056,0.00064818,-0.00159761,-0.00054540
7120.000,0.03517987,0.04946343,9.85345860,0.00049787,0.00169261,0.00079545
7130.000,-0.02033472,0.02593076,9.76786715,0.00251823,-0.00018993,-0.00050747
7140.000,-0.01464730,-0.05214682,9.76871671,0.00540797,0.00078848,-0.00128248
7150.000,-0.01204812,-0.02454684,9.76871043,-0.00138853,-0.00188536,0.00202922
7160.000,-0.06497985,0.09805479,9.78162185,-0.00072875,0.00025472,0.00002868
7170.000,0.01649828,-0.08794860,9.87453246,0.00146298,-0.00169349,-0.00199585
7180.000,0.00835803,-0.02219373,9.78489295,0.00044859,0.00120192,0.00081997
7190.000,0.04347049,-0.14765477,9.76544033,-0.00161891,0.00135497,-0.00133322
7200.000,-0.00595419,-0.00653055,9.93191560,-0.00104308,-0.00188791,0.00275642
7210.000,-0.01687967,0.04951135,9.89723286,0.00126684,0.00120999,0.00264812
7220.000,0.03353070,-0.03369080,9.74242562,0.00562530,-0.00341845,-0.00132345
7230.000,0.03727101,0.08225126,9.83394815,-0.00123235,-0.00170164,-0.00200227
7240.000,0.06167241,0.12959735,9.84851871,-0.00059931,-0.00243321,0.00082257
7250.000,-0.05503164,0.00255304,9.87516076,0.00010340,0.00096206,0.00116754
7260.000,-0.01243899,0.07528528,9.80330316,0.00120601,-0.00074682,0.00439396
7270.000,0.01671737,-0.01753705,9.81462682,0.00046886,-0.00372497,-0.00185349
7280.000,0.01062237,-0.08042710,9.78457034,-0.00348101,0.00003467,-0.00009276
7290.000,-0.06166040,-0.02035543,9.76689181,-0.00093685,0.00402185,0.00124840
7300.000,0.05059106,0.05117000,9.83466471,0.00145220,-0.00186215,-0.00184827
7310.000,-0.06338246,-0.00490674,9.73929038,0.00007361,0.00034601,-0.00356302
7320.000,-0.00736467,0.03237106,9.85625522,-0.00036061,0.00002814,-0.00028111
7330.000,0.02364224,0.06292358,9.81963782,-0.00162678,-0.00107907,-0.00020495
7340.000,-0.01167801,0.04368303,9.85197381,0.00018160,0.00120958,0.00231006
7350.000,-0.02620858,0.01894911,9.79193433,-0.00058870,-0.00091231,0.00102324
7360.000,-0.10042974,0.02200532,9.74192389,0.00122169,-0.00086840,0.00172829
7370.000,0.01641121,-0.07676532,9.77066665,0.00195917,0.00258337,0.00370372
7380.000,-0.02167994,0.06008624,9.77997425,-0.00173283,0.00002780,0.00016921
7390.000,-0.05374855,0.01821725,9.79580132,-0.00019615,-0.00129853,-0.00282490
7400.000,0.03952803,-0.05059400,9.81719269,0.00018536,-0.00153671,0.00031778
7410.000,0.12347834,-0.01196395,9.81598652,-0.00158809,-0.00219932,0.00061396
7420.000,-0.08305201,-0.04264896,9.82963604,0.00030184,0.00115856,0.00451666
7430.000,-0.01649489,0.03072165,9.82789693,0.00055458,0.00097016,-0.00201063
7440.000,-0.06590147,0.05076531,9.74451575,-0.00257381,0.00316566,-0.00170290
7450.000,-0.03824610,0.01147425,9.88500115,-0.00208789,-0.00007820,-0.00003676
7460.000,-0.05019382,0.00738422,9.81445102,-0.00180501,-0.00060995,0.00260194
7470.000,0.03286800,0.05920153,9.78644624,-0.00161199,-0.00278734,0.00202794
7480.000,0.05059246,0.06651609,9.89584796,0.00098459,-0.00124104,-0.00302203
7490.000,0.02509616,0.00787185,9.78292078,-0.00148925,-0.00010941,0.00247321
7500.000,-0.07294934,-0.01389768,9.81226689,-0.00207316,-0.00016904,0.00149171
7510.000,-0.00547462,0.02988590,9.73394134,-0.00476253,0.00206757,-0.00222392
7520.000,-0.00909871,0.09973848,9.85642994,0.00066399,0.00049337,0.00230970
7530.000,0.03080951,0.01953412,9.78837841,0.00110185,-0.00475458,-0.00142948
7540.000,-0.08770351,0.02285643,9.68422858,0.00027641,-0.00038996,0.00109485
7550.000,-0.01627779,-0.00018296,9.78429048,0.00157873,0.00121690,-0.00028937
7560.000,0.10856915,0.09121714,9.85829059,-0.00369267,-0.00091096,0.00097147
7570.000,-0.04626634,0.09607077,9.83759846,-0.00218089,0.00126255,0.00195506
7580.000,-0.04709898,0.00163585,9.85457874,0.00025373,-0.00612756,-0.00241835
7590.000,-0.02994394,0.00702663,9.82247382,0.00377238,-0.00109308,-0.00383092
7600.000,-0.05504271,-0.01350464,9.75537687,0.00247049,0.00002671,0.00234679
7610.000,0.04343340,-0.04540277,9.82124019,0.00055392,0.00091712,0.00086247
7620.000,-0.06950779,-0.05667184,9.74755594,0.00139498,0.00455486,0.00207800
7630.000,-0.01447876,0.00901908,9.82488776,-0.00316068,0.00089332,0.00241849
7640.000,-0.08861176,-0.00843197,9.76912139,0.00240540,-0.00085321,0.00246496
7650.000,0.02670892,-0.01338182,9.80260845,0.00185548,0.00514503,-0.00136540
7660.000,-0.03724745,0.08623239,9.74247103,-0.00101480,-0.00061224,-0.00084631
7670.000,-0.01998670,0.00537992,9.79408198,-0.00178004,-0.00552535,-0.00073573
7680.000,-0.03819680,-0.09058418,9.77207455,0.00073872,-0.00098644,0.00400396
7690.000,-0.04796924,0.08396123,9.91988480,0.00002675,0.00258206,0.00065557
7700.000,-0.00253958,-0.07023783,9.84355221,0.00165281,0.00055848,0.00286983
7710.000,-0.04905382,-0.02745855,9.77520752,0.00011188,0.00099224,0.00086446
7720.000,-0.02502528,-0.01773601,9.74097490,-0.00057657,0.00080996,0.00460009
7730.000,-0.03510068,0.05099721,9.80497215,-0.00054079,0.00083893,0.00264640
7740.000,0.00626569,-0.11161241,9.85403918,0.00228051,0.00002343,-0.00463641
7750.000,-0.03427599,0.05619843,9.81436374,0.00103341,-0.00443895,0.00306976
7760.000,-0.02810267,-0.08388948,9.91539230,0.00033895,0.00199935,-0.00167481
7770.000,0.04016236,0.04315372,9.89759139,-0.00310501,0.00052151,0.00006172
7780.000,0.01120435,0.06762000,9.78272124,-0.00098308,0.00016932,0.00566332
7790.000,0.03687893,-0.03150484,9.78145706,0.00166905,0.00209900,0.00181584
7800.000,0.00485003,-0.06336995,9.82312121,0.00295892,-0.00038014,-0.00398204
7810.000,-0.01559791,-0.09937803,9.78376691,-0.00037717,0.00162347,-0.00181260
7820.000,-0.01725274,0.04264182,9.82090990,-0.00035273,-0.00138354,0.00313057
7830.000,0.07237362,0.02600548,9.77895195,0.00149891,0.00130308,0.00136923
7840.000,-0.00291797,-0.01740240,9.83104864,-0.00007450,0.00039511,-0.00224483
7850.000,0.00299111,-0.03142798,9.80708002,-0.00437288,0.00030016,0.00077303
7860.000,0.02305903,-0.05032108,9.82250044,0.00241853,0.00314267,0.00326455
7870.000,-0.07893415,0.05527857,9.83300904,-0.00199605,-0.00070453,0.00108473
7880.000,0.08146415,-0.05582982,9.86332259,0.00506381,0.00296020,0.00236237
7890.000,0.04678900,-0.00911160,9.78781783,-0.00077558,-0.00176640,0.00170089
7900.000,-0.05425730,-0.06729048,9.76908828,-0.00220132,-0.00047687,-0.00010697
7910.000,-0.06278878,0.07978612,9.73154740,0.00318582,-0.00070939,-0.00475641
7920.000,0.00744477,0.02178526,9.82452496,0.00100889,-0.00139804,0.00020685
7930.000,0.02226443,0.04732002,9.78435389,-0.00017341,-0.00054741,0.00170177
7940.000,0.00437753,-0.01467808,9.87177628,-0.00306573,-0.00103403,0.00148866
7950.000,0.10499330,-0.05969669,9.70509496,-0.00122817,-0.00321761,0.00145719
7960.000,0.02845658,0.05351864,9.90449887,0.00224619,-0.00008999,-0.00380211
7970.000,0.03689452,0.06978905,9.88965304,0.00141194,-0.00331978,0.00073668
7980.000,0.07323889,0.04405803,9.74253952,-0.00177493,-0.00231968,-0.00076525
7990.000,-0.00041809,0.01500193,9.80165952,-0.00036660,-0.00128842,0.00129547
8000.000,-0.00190530,0.07836140,9.76880842,-0.00089214,0.00196038,0.00067990
8010.000,0.03995262,0.01582208,9.76377338,-0.00139511,-0.00173188,-0.00317794
8020.000,-0.05383007,-0.08506575,9.83092885,0.00058147,-0.00070918,-0.00462785
8030.000,-0.00316224,-0.04128887,9.71284474,-0.00107143,-0.00180207,0.00326738
8040.000,0.02163555,-0.00868636,9.77096533,-0.00340556,-0.00288270,0.00233545
8050.000,-0.04820200,-0.01192876,9.83014982,0.00271353,-0.00148997,-0.00114917
8060.000,-0.01649915,-0.05942632,9.80374375,0.00123247,-0.00465420,-0.00360790
8070.000,0.05227737,0.00201338,9.81007118,-0.00056147,0.00309978,-0.00075749
8080.000,-0.01628345,-0.04448319,9.76050513,0.00020187,0.00226758,0.00432722
8090.000,-0.08309270,0.05906129,9.82977271,-0.00115370,-0.00003367,0.00375705
8100.000,0.00412434,0.01477914,9.82362647,-0.00304440,0.00205516,-0.00192421
8110.000,-0.03672731,-0.01626312,9.78293957,0.00020494,-0.00048524,-0.00180413
8120.000,0.12557120,0.05101010,9.81504411,-0.00196620,0.00055283,0.00210245
8130.000,0.06829921,0.06198441,9.73762378,-0.00025947,0.00014023,0.00125320
8140.000,-0.01114266,-0.00081622,9.83722640,-0.00194324,0.00147939,0.00174902
8150.000,-0.01119964,-0.00492656,9.78358256,0.00520725,-0.00075221,-0.00080636
8160.000,0.05244676,-0.07216702,9.78528226,0.00153793,0.00163821,-0.00096090
8170.000,-0.09218380,-0.05148197,9.82250887,-0.00080633,0.00108226,-0.00154642
8180.000,0.01680771,-0.01565958,9.86284926,-0.00082107,0.00017919,0.00210010
8190.000,0.06770214,-0.00346137,9.81917164,-0.00120920,-0.00368477,-0.00372550
8200.000,-0.02262722,0.03134439,9.74694698,-0.00251883,-0.00262634,-0.00020206
8210.000,0.08979174,0.05699926,9.74670368,-0.00237776,-0.00140551,-0.00144154
8220.000,-0.03945092,0.02106244,9.78973744,-0.00088102,0.00264501,0.00143000
8230.000,0.02722998,-0.01796982,9.88289059,0.00003226,-0.00092205,-0.00076090
8240.000,0.00041535,0.12102776,9.83678376,0.00065549,0.00116834,-0.00171020
8250.000,-0.06747022,0.10432483,9.86158395,0.00007296,-0.00406324,0.00052793
8260.000,0.01900738,0.03233167,9.74719766,0.00152430,-0.00056014,0.00373702
8270.000,-0.09021881,-0.00208749,9.87558852,-0.00176248,0.00043488,0.00003178
8280.000,0.01978544,0.08545857,9.87271104,-0.00020060,-0.00022864,0.00031710
8290.000,0.00103044,0.05918785,9.88277977,0.00169592,0.00275547,0.00009785
8300.000,-0.00400910,-0.01068878,9.81367252,0.00163063,-0.00140353,0.00163372
8310.000,-0.12059539,0.01402160,9.84267190,-0.00152398,0.00218132,0.00452255
8320.000,0.00722555,0.01723372,9.80447618,-0.00024417,-0.00438509,-0.00099542
8330.000,-0.09985109,0.08312974,9.78825856,0.00246375,0.00110615,0.00059801
8340.000,-0.03088851,0.06789914,9.85558502,0.00201734,0.00096891,0.00253509
8350.000,0.01365329,0.03846849,9.74890058,0.00183885,0.00304340,0.00081668
8360.000,-0.00404472,0.06473921,9.77279291,0.00181052,-0.00061425,-0.00110438
8370.000,-0.04991667,0.00393020,9.81175285,0.00341354,0.00043241,0.00170776
8380.000,0.03237860,-0.06890762,9.67918116,0.00024748,-0.00117303,0.00011942
8390.000,0.04606160,-0.05414910,9.77615048,0.00287199,0.00111048,-0.00332605
8400.000,-0.10916177,0.05114563,9.82416691,-0.00043049,0.00356459,-0.00033124
8410.000,0.01550973,0.01517275,9.70364189,-0.00360096,0.00378610,0.00146058
8420.000,-0.04925830,-0.02258636,9.76921286,-0.00014003,-0.00074284,0.00225995
8430.000,-0.01357558,0.01230999,9.85697192,-0.00108397,0.00229651,0.00117909
8440.000,-0.07401020,-0.00044177,9.84222718,0.00048936,0.00029103,-0.00025580
8450.000,-0.04620416,-0.00964164,9.82997761,0.00209128,-0.00173069,-0.00315026
8460.000,0.00056044,0.03370989,9.81138491,0.00122888,0.00126248,0.00105351
8470.000,-0.01559313,-0.05863549,9.81900843,0.00081546,-0.00064108,0.00166744
8480.000,0.00499864,-0.04964160,9.83575279,-0.00009112,-0.00097423,-0.00053187
8490.000,0.06339618,-0.03300465,9.77026839,0.00404128,-0.00346995,0.00109093
8500.000,-0.03820743,-0.08393308,9.90687408,-0.00335822,-0.00021647,-0.00077646
8510.000,-0.02244427,-0.04292271,9.75031125,-0.00417006,0.00077808,-0.00066984
8520.000,-0.01939837,-0.03476047,9.87855366,-0.00419841,0.00167914,0.00295969
8530.000,-0.06243689,-0.07692671,9.83423920,0.00298025,0.00071791,0.00018123
8540.000,-0.00536032,-0.01114724,9.83463181,0.00265631,0.00336477,0.00235569
8550.000,0.00683558,-0.00234088,9.73636769,-0.00188308,0.00040269,0.00096702
8560.000,-0.08340476,-0.03502142,9.75243175,-0.00361923,0.00093872,0.00463341
8570.000,0.01346029,-0.08993575,9.78429200,0.00127987,0.00294683,0.00045269
8580.000,-0.00865374,-0.00198276,9.82659821,-0.00014644,0.00076254,-0.00154536
8590.000,-0.01632701,-0.03337460,9.86887401,-0.00192755,0.00253261,0.00283041
8600.000,-0.01600163,0.07095652,9.79039364,-0.00198221,0.00193600,-0.00008876
8610.000,-0.00081348,-0.00693737,9.81821093,0.00067962,0.00092044,0.00207329
8620.000,-0.02099241,0.00480675,9.88319070,0.00016544,0.00282032,0.00070284
8630.000,0.05244259,0.05278692,9.73955347,0.00124837,-0.00166653,0.00440076
8640.000,-0.05900600,0.01088755,9.84518690,0.00093965,0.00142599,-0.00313350
8650.000,-0.02595678,-0.03487924,9.87634215,-0.00164540,0.00247577,0.00065609
8660.000,0.03429383,0.05289933,9.78457750,-0.00382756,0.00207658,-0.00100584
8670.000,-0.02600103,0.04744453,9.79351371,0.00282263,-0.00017567,0.00049057
8680.000,-0.03054285,-0.04565982,9.78108524,0.00235791,-0.00179499,-0.00190511
8690.000,0.04375418,-0.07548324,9.83810262,-0.00039300,0.00165435,-0.00258175
8700.000,-0.03541094,-0.01051502,9.79933772,-0.00333607,0.00164744,-0.00112653
8710.000,-0.01103724,-0.01435638,9.78443220,-0.00078445,-0.00371362,-0.00127911
8720.000,-0.02857126,0.06598868,9.80790247,-0.00001513,0.00186076,-0.00146419
8730.000,-0.00629741,-0.03223264,9.78625281,0.00331475,-0.00136911,-0.00128849
8740.000,-0.03205856,0.03826721,9.76897005,0.00307472,0.00042292,-0.00102693
8750.000,-0.11231229,0.00291540,9.79268046,-0.00031027,0.00270615,0.00300894
8760.000,-0.02928941,0.04557781,9.66997402,-0.00163359,-0.00008487,0.00025627
8770.000,0.07881220,0.05273389,9.77524734,-0.00197248,-0.00011137,0.00008602
8780.000,-0.02253921,0.02521935,9.83321080,0.00228042,0.00241485,-0.00058363
8790.000,-0.03169409,-0.08083884,9.91233464,-0.00042791,0.00132858,-0.00109617
8800.000,0.04780620,0.00784265,9.81543876,0.00117728,-0.00017581,-0.00186517
8810.000,0.03106585,0.03705316,9.70233167,-0.00191367,0.00289412,-0.00023980
8820.000,-0.01754360,-0.02274150,9.79857827,0.00328071,-0.00102727,0.00065487
8830.000,0.03853970,-0.08950401,9.73919288,0.00478535,-0.00211477,-0.00372376
8840.000,-0.03408725,0.00771726,9.84825628,0.00257318,-0.00165362,0.00002987
8850.000,0.08156617,-0.01431771,9.84817405,-0.00117184,0.00053633,-0.00183038
8860.000,0.03550812,0.02708346,9.80543595,-0.00035988,0.00089963,-0.00194651
8870.000,-0.01997660,-0.05326997,9.75007036,-0.00140017,-0.00069477,-0.00278811
8880.000,0.01735409,-0.00272113,9.78587463,-0.00084512,0.00023759,-0.00073017
8890.000,0.03324043,-0.01002446,9.76099104,-0.00054275,-0.00003980,-0.00124315
8900.000,-0.01332490,0.04103149,9.75547434,0.00138213,0.00287196,-0.00086101
8910.000,0.01046384,-0.00277129,9.76860951,0.00097040,-0.00047923,0.00079813
8920.000,-0.01466761,-0.07858415,9.81213201,0.00313156,0.00101732,-0.00348027
8930.000,-0.06823665,0.05362186,9.80205138,0.00090799,0.00246573,-0.00037722
8940.000,-0.02859068,0.05802797,9.75505756,0.00199127,-0.00138023,-0.00290570
8950.000,-0.03738415,-0.09146233,9.87212532,0.00028234,-0.00351295,-0.00041476
8960.000,0.09364328,-0.08367970,9.76586138,0.00257368,-0.00381953,-0.00249480
8970.000,0.00349068,-0.02578471,9.80508425,-0.00206406,-0.00012664,-0.00066784
8980.000,-0.00587990,0.02037759,9.75860173,0.00279827,0.00190870,0.00105354
8990.000,0.00963298,-0.05580637,9.78605710,0.00029126,0.00078646,-0.00166156
9000.000,-0.08683757,-0.02022741,9.77801312,0.00171442,-0.00222409,0.00173256
9010.000,0.04717897,-0.00296300,9.81277516,0.00237229,0.00042173,-0.00029122
9020.000,-0.00112260,-0.10645544,9.70680269,0.00080062,-0.00572304,0.00066512
9030.000,-0.01593388,0.01392800,9.79490674,-0.00022671,-0.00010126,0.00147307
9040.000,-0.04320295,-0.01201566,9.79029572,-0.00014954,-0.00228041,-0.00022340
9050.000,0.03895016,0.03615100,9.77897927,0.00013511,0.00022987,0.00038265
9060.000,-0.00249621,0.01380996,9.82788222,0.00207874,-0.00217207,0.00040961
9070.000,0.08262990,-0.00140738,9.86508724,0.00257986,-0.00346922,0.00041690
9080.000,-0.05800415,-0.03188369,9.69985878,-0.00117076,-0.00074142,-0.00175261
9090.000,0.00756533,0.03237620,9.67888074,-0.00033910,0.00368251,-0.00247246
9100.000,0.00941432,0.03021052,9.83401188,-0.00233922,-0.00260387,0.00351063
9110.000,-0.05979306,0.03865600,9.80711522,-0.00092468,-0.00005128,-0.00075037
9120.000,0.02955188,-0.00629289,9.82570187,-0.00188885,-0.00047030,0.00497108
9130.000,0.05546179,-0.01020110,9.82085524,0.00278414,-0.00170588,0.00134913
9140.000,0.06248843,-0.00666151,9.75038019,-0.00166305,-0.00355274,0.00209240
9150.000,0.03380216,0.07174388,9.87108918,0.00232019,0.00209210,-0.00088696
9160.000,0.03574939,-0.11720788,9.77485836,-0.00033355,0.00149953,0.00083516
9170.000,-0.02923002,0.00224342,9.89106324,-0.00078727,-0.00323814,0.00027931
9180.000,-0.05402708,0.11211010,9.78753360,0.00215802,-0.00239518,0.00132847
9190.000,-0.03834507,0.04226024,9.85286521,0.00066308,0.00150030,0.00179430
9200.000,0.03249735,-0.03847277,9.83175141,-0.00138893,-0.00323392,-0.00101730
9210.000,-0.05167789,-0.03986229,9.80190649,0.00177825,-0.00108401,-0.00133896
9220.000,-0.04099818,0.05263741,9.77774162,-0.00364270,0.00350530,0.00169995
9230.000,-0.01102281,-0.04400991,9.85853049,0.00153979,0.00193545,0.00120133
9240.000,-0.03330635,0.05710056,9.86007718,-0.00048866,-0.00032753,-0.00080783
9250.000,-0.02229705,0.00148339,9.78296455,0.00526948,0.00111182,-0.00088091
9260.000,0.02728610,-0.00972357,9.78577597,0.00093099,-0.00202174,0.00305509
9270.000,0.00230896,-0.07911079,9.80285759,-0.00132214,0.00100217,0.00217742
9280.000,0.03248060,0.00690272,9.85423283,0.00076954,0.00018894,0.00006646
9290.000,-0.01886490,-0.02296454,9.75078405,-0.00011288,-0.00115340,-0.00085473
9300.000,-0.02028725,0.09829463,9.82042717,0.00295918,-0.00021707,-0.00152796
9310.000,-0.02927681,-0.05030710,9.72672346,-0.00103260,0.00220074,0.00139423
9320.000,-0.04151968,0.03795968,9.78529841,0.00112066,-0.00051504,0.00118913
9330.000,-0.04790859,-0.04240919,9.83912404,-0.00128712,-0.00051923,0.00198140
9340.000,-0.00406315,-0.03136022,9.79123058,0.00174856,-0.00196382,-0.00166988
9350.000,0.11029416,0.06098115,9.88008127,0.00021740,0.00345226,-0.00379057
9360.000,-0.08760520,-0.00755511,9.77441055,0.00055667,-0.00275209,-0.00122872
9370.000,0.02719201,0.05299034,9.82297131,-0.00072886,-0.00084102,-0.00102827
9380.000,-0.04362350,-0.03305067,9.83767854,0.00001441,-0.00107051,-0.00288620
9390.000,0.03600366,0.00704762,9.81313955,0.00155974,0.00150574,0.00172444
9400.000,0.00250613,0.01345483,9.84244805,-0.00308147,0.00059784,0.00138943
9410.000,0.03150829,0.00117927,9.80419753,-0.00206240,0.00001835,-0.00019567
9420.000,-0.00436492,-0.03901653,9.76699859,0.00368430,0.00384899,-0.00329247
9430.000,0.02719781,-0.03564344,9.84734669,0.00498785,-0.00183045,0.00199697
9440.000,-0.00256714,0.04097976,9.83849794,0.00194100,-0.00199138,0.00102154
9450.000,0.04214650,-0.02381829,9.82709497,-0.00021507,0.00110866,0.00049573
9460.000,0.03689440,-0.07756633,9.89173467,0.00239268,0.00015080,-0.00030198
9470.000,0.11329765,0.04736441,9.84694404,0.00219213,0.00116079,0.00149677
9480.000,0.02943793,-0.01617167,9.80114149,-0.00132917,-0.00209053,-0.00110292
9490.000,0.04822024,-0.04866086,9.75361415,-0.00124164,0.00157240,0.00198388
9500.000,-0.01986646,0.03281266,9.76335319,-0.00031026,0.00286184,0.00276823
9510.000,-0.01127080,-0.00533378,9.75605654,0.00048680,-0.00164378,0.00318142
9520.000,-0.12198840,-0.05132563,9.81969433,-0.00012203,0.00025233,-0.00064916
9530.000,0.02430717,0.02471815,9.83712862,-0.00177958,-0.00293728,0.00129516
9540.000,-0.03131975,-0.04203046,9.82540290,-0.00156680,0.00611906,-0.00214335
9550.000,-0.01058750,0.04535393,9.82571868,-0.00251476,0.00102028,0.00308681
9560.000,0.06419103,-0.02327682,9.86002671,0.00012918,0.00114448,-0.00365954
9570.000,0.10173379,0.00268713,9.83161533,-0.00135502,-0.00214723,-0.00376316
9580.000,-0.04652641,0.04470283,9.86310291,0.00023396,-0.00448566,-0.00261808
9590.000,-0.02472266,0.02930798,9.82067364,-0.00107439,-0.00166257,0.00081851
9600.000,0.01953926,0.04060099,9.83259498,0.00061116,0.00178760,0.00152983
9610.000,-0.00694939,0.04166482,9.86224280,0.00228163,-0.00000384,0.00063138
9620.000,-0.02770972,-0.00008996,9.71821536,0.00102303,0.00028331,-0.00077057
9630.000,0.02917990,0.06115588,9.79378524,-0.00066489,-0.00163512,0.00086643
9640.000,0.00667181,-0.01100979,9.78745519,-0.00018803,-0.00132635,-0.00130192
9650.000,0.01160856,-0.03921213,9.79488615,-0.00242080,0.00195768,0.00017918
9660.000,-0.04522755,0.02945383,9.81861191,-0.00172560,0.00161710,-0.00109958
9670.000,-0.02156190,0.00185394,9.79561374,-0.00281300,0.00204244,-0.00105350
9680.000,0.05719476,-0.02205062,9.83840225,-0.00081780,0.00008236,0.00230525
9690.000,-0.03526036,0.04071192,9.85851528,0.00004007,-0.00239823,0.00110720
9700.000,0.05422531,0.07355084,9.82127225,-0.00096998,0.00377585,0.00001658
9710.000,0.06189734,0.08120900,9.75054738,-0.00447007,0.00071473,0.00390739
9720.000,-0.03016191,-0.07478504,9.85970721,0.00315184,0.00366191,-0.00202195
9730.000,-0.07542661,-0.08899212,9.75178037,0.00182430,-0.00144399,0.00046552
9740.000,-0.08691560,0.01360790,9.75242287,-0.00254590,-0.00128891,-0.00133618
9750.000,-0.08451415,-0.00209367,9.80750560,0.00179711,0.00160144,0.00056933
9760.000,-0.09348915,-0.03568506,9.80291806,-0.00270084,-0.00062328,-0.00147717
9770.000,-0.01784116,-0.01647416,9.86561435,0.00173935,0.00235637,0.00212721
9780.000,0.10732724,-0.01566492,9.74055592,-0.00151044,-0.00547907,-0.00352011
9790.000,-0.01172915,0.00971466,9.80398607,0.00284325,-0.00080251,-0.00148826
9800.000,0.03053456,0.11059546,9.72099396,0.00328532,0.00253032,0.00006146
9810.000,-0.02535398,0.07705716,9.78054772,-0.00058681,-0.00026420,0.00046626
9820.000,0.03947468,0.03154503,9.86849399,0.00320009,0.00084493,0.00146336
9830.000,0.09566699,0.01665364,9.71935851,0.00233854,-0.00233935,0.00152040
9840.000,-0.03502036,0.10930264,9.73594011,-0.00058914,-0.00503219,-0.00424629
9850.000,0.02484033,-0.12572546,9.73908864,-0.00203624,0.00106245,0.00023702
9860.000,0.04434686,0.00179805,9.78782791,0.00036873,0.00390189,-0.00252939
9870.000,-0.04071780,-0.09982713,9.84132029,-0.00005487,0.00060887,-0.00146438
9880.000,-0.01415737,-0.07609326,9.80815946,0.00005665,-0.00319990,0.00282735
9890.000,0.02906240,-0.01003368,9.81244963,-0.00136323,0.00406280,-0.00005804
9900.000,0.00190634,-0.03533974,9.80936298,0.00205611,-0.00010661,-0.00005521
9910.000,0.03676085,0.05173218,9.84618647,-0.00116806,0.00023825,0.00064165
9920.000,-0.03375490,0.03181063,9.82992332,-0.00156852,-0.00025009,-0.00121517
9930.000,-0.03548544,-0.02321564,9.84063466,0.00459933,-0.00017946,0.00309486
9940.000,0.06884541,-0.09058359,9.88865306,-0.00039124,0.00051858,-0.00263896
9950.000,0.05820798,0.00995593,9.79461417,-0.00089415,0.00042107,0.00317515
9960.000,0.01952167,-0.03202827,9.79776525,0.00044397,0.00276744,0.00128397
9970.000,-0.07375135,-0.08707615,9.92326533,0.00325480,-0.00011808,0.00478233
9980.000,0.00315376,0.01018445,9.80511336,-0.00097079,-0.00153292,-0.00241885
9990.000,-0.04138870,-0.01535311,9.81120943,0.00466205,0.00163890,-0.00066761
10000.000,-0.00983191,-0.03761014,9.83062444,0.00249805,0.00137538,0.00393225
10010.000,0.00941823,0.01964539,9.84190224,-0.00309567,-0.00053072,-0.00092567
10020.000,-0.00852620,-0.00844440,9.88077263,-0.00394737,0.00212065,-0.00054205
10030.000,-0.04720076,-0.09368159,9.83442694,0.00147926,0.00471954,-0.00070837
10040.000,-0.03146750,-0.05386755,9.85091190,-0.00084231,0.00023733,0.00197198
10050.000,-0.00723842,-0.06317820,9.90339731,-0.00113343,-0.00126192,0.00211124
10060.000,-0.08053431,-0.00433392,9.71218616,0.00075728,-0.00408946,-0.00245455
10070.000,0.01353291,-0.03205544,9.84761374,0.00300247,0.00080386,-0.00152879
10080.000,-0.00086932,0.06753039,9.78516430,-0.00034082,0.00002647,0.00146644
10090.000,-0.08022722,0.01187580,9.79402213,-0.00271653,-0.00168190,0.00054026
10100.000,-0.09096299,-0.05276901,9.76979338,-0.00019967,0.00114372,-0.00246530
10110.000,0.07776917,0.03537229,9.78926324,0.00071426,0.00218317,0.00096673
10120.000,0.02354349,-0.10197299,9.77840469,0.00027822,-0.00019177,-0.00167724
10130.000,0.02004977,0.00826882,9.77968219,-0.00014400,0.00251941,-0.00024622
10140.000,-0.00191541,0.01690543,9.80618217,-0.00177961,-0.00098449,0.00039291
10150.000,0.04305020,0.01593511,9.83221202,-0.00074703,0.00097061,0.00103627
10160.000,0.08567774,0.04137532,9.89369792,0.00177797,0.00284712,0.00198167
10170.000,-0.03359572,-0.07962069,9.79963596,-0.00186848,-0.00180707,-0.00016222
10180.000,-0.01127982,0.07297071,9.75014778,-0.00090235,-0.00227665,-0.00089469
10190.000,-0.00394395,0.02025897,9.81165513,-0.00094903,-0.00134370,-0.00064351
10200.000,-0.00857648,0.01792842,9.86060488,0.00235690,0.00039848,0.00493106
10210.000,0.07678727,0.00164036,9.76585771,0.00034102,-0.00058013,-0.00000492
10220.000,0.07672670,-0.05388167,9.89617894,0.00051298,0.00087051,0.00413961
10230.000,0.06720677,0.07446994,9.84091954,-0.00169064,0.00171809,0.00040106
10240.000,-0.10562450,-0.05195604,9.82199441,-0.00314220,0.00154140,0.00252018
10250.000,-0.03378235,-0.01576399,9.83729041,-0.00171435,-0.00001787,-0.00346640
10260.000,-0.00849871,-0.06095103,9.85093294,-0.00251761,0.00209606,-0.00094915
10270.000,0.02574514,-0.01244980,9.84221331,-0.00221761,0.00045892,-0.00106177
10280.000,0.00475235,0.06656806,9.81421039,-0.00094164,0.00147865,-0.00234104
10290.000,0.06619638,-0.09368264,9.82961095,-0.00181073,0.00030816,0.00192062
10300.000,-0.01989309,-0.04295255,9.86457503,0.00247632,-0.00133012,0.00185593
10310.000,0.04445437,-0.10032383,9.84242478,-0.00156828,0.00365242,-0.00228699
10320.000,0.02970740,-0.03615358,9.76488480,0.00265696,-0.00131297,0.00400642
10330.000,-0.07952876,-0.01687659,9.79777562,0.00118264,-0.00203203,-0.00106517
10340.000,0.03984984,0.01346902,9.75365459,0.00156236,0.00210529,-0.00016275
10350.000,0.01194372,-0.01270227,9.75990869,0.00008932,0.00151671,0.00024165
10360.000,-0.07947536,0.03124017,9.82896986,-0.00258701,-0.00162595,0.00044767
10370.000,0.02783845,-0.03641222,9.81520399,0.00243096,0.00323196,0.00153586
10380.000,-0.06876821,-0.04932914,9.80833661,0.00057458,0.00149763,-0.00135732
10390.000,0.01311765,-0.08144089,9.75377276,-0.00030646,-0.00164826,-0.00252193
10400.000,-0.01826964,0.04792594,9.76599486,0.00066710,0.00037103,0.00135024
10410.000,0.00702876,0.01226963,9.79416541,0.00109222,0.00048529,0.00108754
10420.000,0.01340100,-0.06724584,9.77386064,-0.00008537,0.00082578,-0.00147860
10430.000,0.07171799,0.07523825,9.84879604,0.00073941,0.00133684,-0.00136630
10440.000,0.05501961,-0.09129554,9.75921521,0.00010366,-0.00124721,-0.00108057
10450.000,-0.01555508,0.12078210,9.79099580,-0.00224986,0.00253155,0.00210319
10460.000,0.03724521,0.01891860,9.82445617,0.00107487,0.00394439,-0.00040729
10470.000,-0.00117653,-0.06000164,9.67159180,0.00606352,-0.00045506,0.00048096
10480.000,0.06409212,-0.03082489,9.71329434,-0.00079556,0.00074465,0.00164118
10490.000,0.02189805,0.02093947,9.84504462,-0.00022783,0.00355344,0.00044763
10500.000,0.05578579,-0.04594932,9.76290091,0.00054097,-0.00181800,0.00080571
10510.000,-0.01593516,0.04108201,9.70151805,-0.00026805,-0.00121648,-0.00158486
10520.000,0.00641032,0.04660609,9.85119282,0.00534353,-0.00052695,-0.00294650
10530.000,0.03542808,0.05315003,9.66929086,-0.00139644,-0.00010314,0.00106019
10540.000,0.08067343,0.01652025,9.87338256,0.00110959,0.00135323,-0.00132349
10550.000,-0.05873172,-0.08769134,9.89596888,0.00068088,-0.00175212,-0.00127367
10560.000,-0.04632609,-0.01554245,9.83302273,-0.00183542,-0.00237678,0.00209341
10570.000,0.03864433,0.05392081,9.81781931,0.00137722,0.00195333,0.00004300
10580.000,-0.05271546,0.03533163,9.84277780,0.00155362,-0.00352258,0.00168993
10590.000,-0.09075174,0.07093424,9.68229622,0.00035424,0.00125422,0.00072319
10600.000,0.05172078,-0.03170550,9.84192547,-0.00197411,-0.00299608,-0.00146158
10610.000,0.02550971,-0.00185613,9.82920433,0.00112983,0.00138018,-0.00277398
10620.000,-0.00432243,0.03569754,9.91591359,-0.00196220,-0.00144647,-0.00075332
10630.000,-0.06706195,-0.15940732,9.78586629,-0.00272410,-0.00284410,-0.00168300
10640.000,-0.02420129,-0.01887841,9.76032805,0.00017251,-0.00236119,-0.00027155
10650.000,0.04362171,-0.06906647,9.82918876,0.00211711,-0.00260356,-0.00045345
10660.000,0.03192328,0.01582330,9.83100716,0.00204951,-0.00083654,-0.00118851
10670.000,0.04746336,0.00267826,9.78932517,0.00232699,-0.00061240,0.00216720
10680.000,0.02431852,0.03001831,9.85113405,0.00085793,-0.00068569,0.00091698
10690.000,-0.08561964,-0.00917658,9.75338159,0.00064090,0.00204177,-0.00113971
10700.000,0.02804824,0.03633546,9.79292937,0.00008241,-0.00012303,0.00136467
10710.000,-0.03646340,0.02984818,9.79998788,-0.00205036,0.00203395,0.00088842
10720.000,0.07132333,0.08864765,9.85668555,-0.00263385,0.00241653,0.00442333
10730.000,0.01163287,0.09127874,9.81868601,0.00200367,0.00285397,0.00012528
10740.000,-0.02395969,-0.03376702,9.77147492,-0.00332301,-0.00368824,0.00046409
10750.000,-0.00031849,0.02315434,9.73589215,-0.00118396,-0.00182915,-0.00017218
10760.000,-0.02244630,0.01064255,9.83883131,0.00123117,-0.00290552,-0.00094506
10770.000,-0.00129614,0.01222541,9.74472388,0.00301974,-0.00215058,0.00169161
10780.000,-0.04558934,-0.00304309,9.83217756,-0.00096946,0.00109159,0.00214614
10790.000,0.01156516,-0.04244122,9.79482190,0.00148256,0.00181832,-0.00235232
10800.000,0.07559192,0.02721291,9.79852335,0.00222732,-0.00170539,0.00046935
10810.000,-0.05129184,-0.03566856,9.80697952,0.00051649,0.00097025,0.00062357
10820.000,0.01379735,0.02827817,9.82604928,-0.00168762,-0.00269973,0.00169374
10830.000,-0.01851182,-0.02555524,9.90899944,0.00037167,0.00229875,-0.00014103
10840.000,-0.02782337,-0.06458518,9.72471413,-0.00281033,0.00193226,-0.00079291
10850.000,-0.01765944,0.04699919,9.77785262,0.00068401,-0.00129492,0.00323583
10860.000,0.07387573,-0.00036408,9.86212790,-0.00175313,-0.00067486,0.00016152
10870.000,-0.03788606,-0.03711084,9.81120229,-0.00218436,0.00066104,0.00316984
10880.000,0.02412773,-0.00894786,9.82127327,-0.00098092,0.00079029,-0.00555346
10890.000,0.02942430,-0.07102528,9.78960313,-0.00007786,-0.00062608,-0.00169219
10900.000,-0.02593413,-0.02350611,9.82699389,0.00216290,-0.00065249,-0.00041075
10910.000,-0.02523947,-0.10025388,9.79482407,-0.00075439,-0.00383363,-0.00232037
10920.000,-0.05322030,0.02481660,9.84693485,0.00192219,-0.00421990,-0.00158963
10930.000,-0.10874144,-0.03871160,9.82431865,-0.00079944,0.00348724,0.00147960
10940.000,-0.07044376,0.03913304,9.85911583,-0.00111434,0.00260903,-0.00153924
10950.000,-0.00810078,-0.03869558,9.69112162,0.00201820,-0.00271775,0.00208771
10960.000,0.04070126,0.10012685,9.89643256,-0.00081227,-0.00205701,-0.00049370
10970.000,-0.00974868,-0.05463379,9.84853121,0.00055469,-0.00098950,0.00104790
10980.000,-0.00634344,0.02390659,9.82178759,-0.00116599,0.00124074,0.00082384
10990.000,0.00465017,0.05142569,9.85993340,-0.00012185,-0.00088276,0.00024188
11000.000,-0.02613438,-0.04615562,9.68169421,0.00110051,0.00412360,0.00181704
11010.000,-0.01730807,-0.05466626,9.82760985,0.00195198,0.00617702,0.00096952
11020.000,-0.01679335,-0.01137143,9.84724830,0.00096929,0.00140803,-0.00208093
11030.000,0.01986273,-0.00583450,9.89097128,-0.00088780,-0.00101234,0.00123163
11040.000,0.03690745,-0.02079304,9.78808734,-0.00034835,0.00027645,0.00211072
11050.000,0.03941898,0.01014228,9.75059201,0.00172630,-0.00032344,-0.00140477
11060.000,0.04473564,0.06286161,9.86571944,0.00227055,0.00154778,-0.00327789
11070.000,0.07713745,0.10345991,9.89314795,-0.00062631,0.00033103,0.00149169
11080.000,0.01703309,-0.01042139,9.71516992,0.00182020,0.00056781,0.00110393
11090.000,0.00054339,0.02595680,9.80882765,0.00012827,-0.00134770,-0.00058968
11100.000,-0.09441105,-0.01433107,9.83891660,0.00003798,-0.00006936,-0.00383889
11110.000,-0.05129575,0.00828456,9.82823135,-0.00079497,0.00011241,-0.00063108
11120.000,0.05589838,0.08563027,9.78775870,-0.00049365,0.00097598,-0.00222684
11130.000,0.00918787,0.01075346,9.83911874,-0.00325608,-0.00069634,0.00145871
11140.000,0.02687015,0.07125028,9.69008516,0.00337511,0.00156426,-0.00300663
11150.000,0.02090105,0.02437055,9.79488854,-0.00046473,0.00051327,0.00028449
11160.000,-0.11320049,-0.00304981,9.77112196,0.00107861,-0.00183410,0.00005860
11170.000,0.08389777,0.01876457,9.76687576,0.00084065,0.00165134,-0.00168331
11180.000,-0.10263225,0.02953088,9.84145746,-0.00069031,-0.00540764,-0.00131538
11190.000,-0.01078884,0.03018377,9.78923647,-0.00104883,-0.00203917,0.00025818
11200.000,0.05336076,0.04963424,9.72470373,-0.00011189,-0.00451843,0.00035739
11210.000,-0.06975959,0.10156409,9.85325982,-0.00185665,0.00097138,-0.00263791
11220.000,-0.06311905,-0.07851900,9.81703860,0.00006001,-0.00056633,0.00053141
11230.000,-0.05711577,-0.01583537,9.80428604,0.00024939,-0.00051033,-0.00314792
11240.000,-0.00452192,0.05632691,9.89838781,-0.00295442,-0.00116777,-0.00009252
11250.000,-0.02394589,-0.05653296,9.82609231,-0.00121650,0.00125042,-0.00063498
11260.000,0.08157401,-0.02016076,9.84916794,-0.00193003,-0.00055619,0.00037460
11270.000,-0.04185678,0.00106357,9.74855289,0.00064977,0.00375676,-0.00141551
11280.000,0.00054160,-0.00582275,9.83705614,-0.00014696,0.00085225,-0.00012512
11290.000,0.08890308,-0.01944477,9.70666354,-0.00100124,-0.00309851,-0.00110052
11300.000,-0.01010519,0.01496588,9.81674500,-0.00214740,-0.00345321,-0.00167079
11310.000,-0.00787114,0.07438575,9.81346073,-0.00209418,0.00116757,0.00112218
11320.000,-0.00523981,-0.03888531,9.71931447,-0.00180776,-0.00052046,-0.00379707
11330.000,0.01646160,0.01227089,9.75368347,-0.00098868,0.00079796,0.00156872
11340.000,-0.00221862,-0.00719257,9.77542497,-0.00142609,0.00210371,-0.00311311
11350.000,-0.03966554,0.02025408,9.79535941,-0.00249526,0.00141932,0.00325994
11360.000,-0.02954968,-0.04308360,9.80015075,0.00098686,-0.00008068,-0.00447324
11370.000,0.04622418,0.01033200,9.79479390,-0.00404489,0.00025882,-0.00079957
11380.000,0.01542452,0.06821925,9.83117070,-0.00221167,0.00013107,0.00014625
11390.000,0.01301005,0.03192648,9.79874931,0.00188883,0.00027320,0.00237220
11400.000,0.00920339,-0.02444777,9.72912233,0.00001599,-0.00023067,0.00204347
11410.000,0.01714179,0.01733400,9.79226435,-0.00195688,0.00562889,0.00066479
11420.000,0.05179105,-0.03608017,9.71808078,0.00076166,0.00105019,0.00366798
11430.000,-0.03485579,-0.07704697,9.82355182,0.00158501,-0.00321011,0.00272008
11440.000,-0.03760389,0.04923446,9.85483994,-0.00068179,0.00021431,-0.00264593
11450.000,-0.04624870,-0.04040534,9.83337198,0.00105240,-0.00130275,0.00011235
11460.000,0.04899199,-0.10063103,9.82073354,-0.00056820,0.00385003,0.00387597
11470.000,-0.10987953,-0.02742581,9.86133284,0.00009303,0.00012796,-0.00083600
11480.000,0.15048851,-0.01194119,9.74429421,0.00221201,-0.00065784,-0.00093235
11490.000,-0.02567461,0.00330348,9.77313794,0.00195719,-0.00107660,-0.00016575
11500.000,-0.04624118,-0.02134250,9.82642886,-0.00316262,0.00140838,0.00379094
11510.000,-0.00847045,-0.04408014,9.77314688,0.00144245,0.00292360,-0.00178356
11520.000,-0.02069293,-0.04997132,9.77129275,0.00047265,-0.00188632,-0.00054745
11530.000,0.03218180,-0.01151605,9.71897565,0.00154442,0.00020364,-0.00291776
11540.000,0.05124743,0.02083599,9.73749335,-0.00263006,-0.00276233,0.00088987
11550.000,-0.01826895,-0.03960494,9.84049529,0.00412779,0.00272492,-0.00388556
11560.000,-0.01858261,-0.00363867,9.79719028,0.00284215,0.00187280,-0.00318474
11570.000,-0.07400673,0.07026981,9.83976650,-0.00060640,0.00219104,0.00100617
11580.000,-0.03736918,0.00959310,9.85535590,-0.00261819,0.00122148,-0.00437025
11590.000,0.00278705,0.07783771,9.95254254,-0.00044564,0.00227591,-0.00005901
11600.000,-0.00630609,-0.02912649,9.75717954,-0.00099788,0.00177869,0.00185315
11610.000,-0.11067873,0.06240725,9.78897531,0.00262008,0.00174868,0.00206585
11620.000,0.04376779,0.05382261,9.75260149,0.00146582,0.00053106,0.00008157
11630.000,-0.04654071,0.08723434,9.80314674,-0.00047452,-0.00242474,-0.00200862
11640.000,-0.03301438,-0.05225866,9.79957721,-0.00056403,0.00048290,0.00278308
11650.000,0.07539472,0.03427190,9.81573812,-0.00008359,0.00200695,0.00205954
11660.000,0.07942605,0.06978876,9.82335611,-0.00046289,0.00118938,-0.00058669
11670.000,0.13880598,-0.01237116,9.86155142,0.00264427,0.00127169,-0.00248115
11680.000,-0.01964983,0.04514242,9.79423064,0.00032305,0.00329622,-0.00046319
11690.000,0.02306842,0.11950680,9.85424259,0.00089543,0.00109176,-0.00217451
11700.000,0.02384206,-0.03873514,9.81606144,0.00102142,-0.00278767,-0.00135306
11710.000,-0.05040013,0.04434882,9.84974388,0.00215145,0.00071351,-0.00071130
11720.000,-0.00898177,0.08317660,9.88279480,0.00089292,-0.00012018,-0.00007773
11730.000,0.00748233,0.02827556,9.77722714,0.00131364,-0.00145474,-0.00002275
11740.000,-0.01360903,-0.05390039,9.78273315,-0.00062454,-0.00317121,-0.00194487
11750.000,-0.00521944,-0.08301836,9.83549070,0.00313641,0.00076945,-0.00275168
11760.000,0.05110641,-0.00039589,9.67178790,-0.00308071,-0.00022433,0.00301734
11770.000,-0.01264964,-0.06966931,9.77616905,-0.00037352,0.00261400,0.00059829
11780.000,0.07259682,-0.12172365,9.76583187,0.00094250,-0.00267144,0.00176894
11790.000,0.04147848,-0.03509631,9.76772849,-0.00066986,0.00172618,-0.00173497
11800.000,0.10162031,0.01891937,9.85336512,0.00035410,0.00070401,-0.00041523
11810.000,0.02473349,0.00808487,9.86985125,0.00080909,-0.00053279,-0.00140581
11820.000,0.09526733,-0.08417585,9.80488413,0.00321097,0.00209791,-0.00162995
11830.000,-0.00215994,-0.02146386,9.85570303,0.00113689,-0.00148536,-0.00247812
11840.000,0.01284438,0.09627364,9.86166332,0.00206762,-0.00340820,0.00174443
11850.000,0.06823512,-0.05995821,9.76634570,-0.00050544,-0.00042309,0.00070970
11860.000,-0.03618457,0.06615594,9.75829119,0.00116240,-0.00165269,0.00132512
11870.000,-0.04689672,-0.05606777,9.94430136,0.00022674,-0.00251211,-0.00045060
11880.000,-0.00711160,0.02649440,9.74961913,0.00276256,0.00335319,0.00132332
11890.000,0.04796292,-0.08868333,9.75769986,-0.00238069,0.00098121,0.00158983
11900.000,-0.03656869,0.01094358,9.76699588,0.00145142,0.00156991,0.00061411
11910.000,0.07619991,0.02516116,9.77216983,-0.00014482,-0.00121673,-0.00390881
11920.000,0.04988085,-0.01966423,9.77712817,0.00067928,0.00037211,0.00100170
11930.000,0.04479078,-0.12264123,9.84339085,-0.00267509,0.00129003,0.00399512
11940.000,-0.03565474,-0.03573037,9.90455685,0.00015690,-0.00012333,0.00050352
11950.000,-0.02656064,0.04779573,9.82061224,0.00406467,-0.00204730,0.00029141
11960.000,0.01914955,-0.01252711,9.79151422,-0.00159931,-0.00109401,-0.00021470
11970.000,0.07639942,0.04652300,9.78166595,0.00269465,0.00360198,0.00078026
11980.000,-0.05229381,-0.02922369,9.85572476,-0.00075319,0.00498548,-0.00097165
11990.000,0.05893459,0.02774718,9.72581145,-0.00114227,-0.00354989,0.00267513
12000.000,0.03768895,0.06517891,9.81532783,0.00193649,0.00483561,-0.00289660
12010.000,0.09899015,-0.06604853,9.84089038,0.00291634,0.00014027,0.00149414
12020.000,-0.05101107,0.05292710,9.83729304,-0.00329555,0.00293616,0.00145446
12030.000,0.09006779,0.02498543,9.78644970,-0.00007782,0.00129023,-0.00165007
12040.000,-0.02455351,-0.01250886,9.78111380,-0.00115888,-0.00092689,-0.00382504
12050.000,0.06735545,0.06378191,9.73182163,0.00172352,0.00238319,-0.00152277
12060.000,0.00191801,0.00312458,9.76758524,0.00069641,-0.00053108,0.00053596
12070.000,0.02191250,0.07304254,9.85124045,-0.00125515,-0.00176685,0.00198306
12080.000,0.06735342,-0.03592339,9.80847539,-0.00012774,0.00404422,-0.00002897
12090.000,-0.03828238,0.01197150,9.82312255,-0.00185216,0.00245388,0.00113952
12100.000,0.04799190,0.06567459,9.84109886,0.00145375,0.00238120,-0.00142817
12110.000,-0.04300849,-0.06760864,9.83265100,-0.00025451,-0.00034290,-0.00270457
12120.000,0.07502606,-0.00123959,9.73028032,-0.00052718,0.00267276,0.00035110
12130.000,0.10423780,0.02447023,9.81520708,-0.00269212,-0.00311168,0.00320549
12140.000,-0.05839856,0.00081081,9.84099421,-0.00018064,-0.00129482,-0.00067254
12150.000,0.02515104,-0.03399436,9.80379674,-0.00295462,0.00284619,-0.00091115
12160.000,-0.03080034,0.08320808,9.85139370,0.00273480,0.00010330,0.00273353
12170.000,-0.02621674,-0.05842348,9.82054075,0.00051339,0.00170647,0.00131216
12180.000,-0.02464087,-0.02091533,9.74988929,0.00124658,0.00069587,-0.00059222
12190.000,-0.05057044,0.00813351,9.79330608,0.00383087,-0.00181387,-0.00011838
12200.000,0.12482572,0.02971267,9.74906524,0.00002977,0.00080488,-0.00098643
12210.000,-0.07678181,0.01990857,9.78680665,0.00062949,-0.00033769,-0.00329187
12220.000,0.06657375,0.01409319,9.70752398,0.00001910,-0.00220113,-0.00359722
12230.000,-0.05097121,-0.03376410,9.82875185,0.00027375,0.00097577,0.00092446
12240.000,-0.05263762,0.00764088,9.73984251,0.00113434,-0.00386518,-0.00285145
12250.000,0.00030927,0.01850130,9.87972552,0.00394704,-0.00209442,0.00109179
12260.000,0.01227877,-0.04083675,9.88130025,-0.00137388,0.00015935,-0.00139688
12270.000,-0.00915890,0.03867834,9.77600521,0.00112308,0.00027355,-0.00102742
12280.000,0.00453891,-0.04006340,9.82276300,-0.00210034,0.00053555,-0.00255675
12290.000,0.04019140,-0.02473996,9.77909960,0.00085496,0.00525297,0.00256855
12300.000,0.01784091,-0.04125080,9.73075282,0.00143670,-0.00017121,-0.00400977
12310.000,0.01765982,-0.00538486,9.80020703,-0.00264457,0.00256559,-0.00171225
12320.000,0.02605352,0.03303752,9.79859991,-0.00139850,-0.00033130,-0.00225729
12330.000,-0.05613347,-0.03192934,9.83589820,-0.00245354,-0.00010095,-0.00191673
12340.000,0.00682013,-0.02748797,9.76743068,-0.00148204,-0.00156238,0.00091058
12350.000,0.03089114,-0.01108262,9.84428584,-0.00046425,-0.00035714,0.00105929
12360.000,0.04396679,-0.01564199,9.85413237,-0.00028408,-0.00055651,0.00080583
12370.000,0.00692049,0.01338791,9.69721255,0.00133640,-0.00029415,0.00002569
12380.000,-0.04854606,-0.04583472,9.79071726,-0.00156358,-0.00172137,0.00140230
12390.000,0.00571755,0.00776252,9.82093735,0.00088988,0.00091060,0.00042526
12400.000,-0.03424723,0.03456815,9.89711442,0.00009241,0.00139282,0.00173331
12410.000,-0.01766624,-0.03318341,9.77238341,0.00182246,-0.00020156,0.00263662
12420.000,0.00427339,-0.02628816,9.72013358,0.00045692,0.00126475,0.00042635
12430.000,-0.07283759,0.05100951,9.87073970,0.00049401,-0.00147150,0.00126442
12440.000,0.07999448,0.01131522,9.75710472,0.00569059,-0.00074959,0.00000326
12450.000,-0.02190081,-0.07456938,9.73015540,-0.00089241,-0.00097604,0.00294972
12460.000,0.01276314,0.02695058,9.90456868,-0.00134594,-0.00094816,-0.00331462
12470.000,-0.00415468,-0.06789174,9.80055398,-0.00151522,-0.00341680,0.00112353
12480.000,-0.01412296,-0.02456158,9.82383748,0.00559939,-0.00073336,-0.00347405
12490.000,-0.06072363,0.00653607,9.83922816,0.00180000,-0.00145385,0.00245772
12500.000,0.07098689,0.01551879,9.85880602,-0.00056406,-0.00126363,-0.00049734
12510.000,-0.02219480,-0.01521451,9.87404235,0.00151555,-0.00045484,-0.00113531
12520.000,-0.06857922,-0.02015702,9.86307232,-0.00039766,-0.00254371,0.00065176
12530.000,-0.01055559,-0.01428010,9.79338339,-0.00357345,-0.00088824,0.00137602
12540.000,0.00585759,0.05430419,9.85286158,0.00060610,0.00118064,-0.00027328
12550.000,0.00057286,0.05461943,9.82373965,0.00233949,0.00184940,0.00074866
12560.000,0.04295601,-0.05141847,9.89357764,0.00185509,0.00150085,-0.00102299
12570.000,0.01101065,-0.13741547,9.88962636,-0.00268780,0.00084072,0.00094768
12580.000,0.00025275,-0.01977470,9.77636585,0.00218094,-0.00187264,-0.00195779
12590.000,0.02197509,-0.04441945,9.77780468,0.00091980,-0.00014233,-0.00391689
12600.000,-0.02764391,-0.01461235,9.78088959,0.00075022,-0.00370485,-0.00203631
12610.000,0.04264071,0.01355312,9.82630184,0.00270336,0.00364976,-0.00257754
12620.000,0.03053011,-0.00465471,9.75563453,-0.00065878,0.00008525,0.00341580
12630.000,0.09025862,0.04637673,9.88729135,-0.00098574,-0.00095377,0.00295037
12640.000,0.05172692,-0.02301857,9.68925110,-0.00074958,0.00144440,-0.00310179
12650.000,-0.06145482,0.03182610,9.80156260,-0.00034247,-0.00331919,-0.00225879
12660.000,-0.02099249,-0.12477768,9.80599364,0.00167840,-0.00009981,-0.00078656
12670.000,-0.05408893,-0.03621913,9.84915520,-0.00149750,-0.00044131,0.00045346
12680.000,-0.05145710,-0.04668447,9.81592902,0.00196583,-0.00525029,-0.00181271
12690.000,0.04361810,-0.02013529,9.88001077,0.00031819,-0.00019773,0.00065715
12700.000,-0.06393346,-0.07270278,9.72968570,0.00053508,-0.00060974,-0.00120373
12710.000,-0.08260919,0.01682745,9.75776053,-0.00049100,0.00229748,-0.00161445
12720.000,-0.07050962,0.01898983,9.84784746,-0.00012561,0.00036668,0.00296985
12730.000,0.05254292,0.04376422,9.76074483,-0.00060062,0.00191761,0.00231270
12740.000,0.01380455,0.02484358,9.78290584,-0.00012751,-0.00042144,-0.00080978
12750.000,0.00823761,-0.06258091,9.77526999,-0.00051165,0.00170848,0.00030994
12760.000,0.01858937,0.07537713,9.86422198,0.00047058,-0.00225045,-0.00208747
12770.000,0.03304292,0.00398500,9.80288847,0.00428689,-0.00035565,-0.00170244
12780.000,-0.07238000,-0.04177533,9.76650726,0.00286220,0.00056362,0.00100301
12790.000,0.02873797,0.04724739,9.84347867,-0.00027609,-0.00063735,-0.00049287
12800.000,0.05913332,0.00361288,9.75750349,-0.00276548,-0.00017585,0.00043796
12810.000,-0.00249664,-0.03624185,9.83954300,0.00370093,0.00017200,-0.00482286
12820.000,-0.01795437,-0.00492658,9.84133111,-0.00018797,0.00547901,0.00157783
12830.000,-0.03705471,0.04819883,9.73927018,-0.00162178,0.00118221,-0.00163932
12840.000,0.01532755,-0.00454495,9.84801709,-0.00270762,-0.00069674,0.00002736
12850.000,-0.06871870,-0.07653956,9.84415222,-0.00374431,-0.00229832,-0.00013541
12860.000,-0.01954611,-0.00454011,9.77366254,-0.00081635,0.00078962,-0.00258581
12870.000,0.04564052,0.01496081,9.81868320,0.00142823,-0.00236752,0.00312860
12880.000,-0.05848102,0.02507528,9.75703935,-0.00343152,-0.00218511,0.00067748
12890.000,-0.03292765,-0.06826738,9.79882293,0.00332847,0.00063009,0.00096807
12900.000,0.05322366,0.01133475,9.78455895,0.00003507,-0.00205280,-0.00113831
12910.000,0.00545732,0.00518070,9.80995343,-0.00242382,-0.00255742,0.00064508
12920.000,0.00886672,-0.05199972,9.81197692,-0.00224636,0.00063911,-0.00276244
12930.000,-0.08776242,0.02878118,9.75151254,0.00059277,-0.00097737,0.00265405
12940.000,0.05887989,-0.12226181,9.89037125,0.00064744,0.00247157,-0.00167085
12950.000,-0.08196103,-0.05999673,9.82160285,0.00011229,-0.00196217,-0.00098715
12960.000,0.03093575,-0.01416927,9.85128030,-0.00052421,-0.00145172,-0.00259132
12970.000,-0.03982771,-0.01998460,9.79154610,-0.00282703,-0.00467950,-0.00227338
12980.000,-0.02691979,-0.09670893,9.80541665,0.00125499,-0.00319700,-0.00289731
12990.000,-0.00575036,0.05390914,9.74235278,0.00358180,-0.00127299,0.00048066
13000.000,-0.03197037,0.06017456,9.82131444,0.00128463,0.00132505,-0.00320643
13010.000,0.02746898,0.02267168,9.82954358,-0.00046212,-0.00323645,0.00473046
13020.000,0.09105250,0.00457703,9.75608284,-0.00318975,-0.00209568,-0.00224374
13030.000,0.03193987,-0.02832758,9.80115315,-0.00299332,0.00270519,0.00468199
13040.000,0.01850905,-0.04106772,9.78113526,-0.00095150,-0.00264085,-0.00463712
13050.000,0.02379243,-0.02743225,9.85531927,-0.00048822,-0.00063273,-0.00146622
13060.000,-0.04930788,-0.04947622,9.90195279,0.00044275,0.00079035,0.00048218
13070.000,-0.07651132,-0.00133583,9.89922419,-0.00063225,-0.00220324,0.00116732
13080.000,-0.00142957,0.06733853,9.83927374,0.00002503,0.00177672,0.00141544
13090.000,-0.00036009,-0.00653226,9.70068413,-0.00284352,-0.00286844,-0.00167614
13100.000,-0.01595558,0.01161093,9.81823315,-0.00211253,0.00151050,0.00053720
13110.000,0.12329294,0.01404790,9.83815727,0.00219837,0.00079297,0.00025153
13120.000,0.05824816,0.02702507,9.80234755,0.00239946,0.00093945,-0.00002992
13130.000,-0.00405937,-0.01753272,9.82886055,0.00296091,0.00023036,-0.00077515
13140.000,-0.00851604,0.03124682,9.75619563,-0.00167565,0.00140605,0.00230729
13150.000,0.00734242,0.07760337,9.79541883,-0.00010117,0.00261583,-0.00410719
13160.000,0.09215008,0.00818357,9.80382459,-0.00011091,-0.00008019,-0.00162149
13170.000,0.00583093,-0.01557116,9.70762220,0.00476772,-0.00013239,-0.00098331
13180.000,0.04400874,0.10963566,9.83067146,0.00005192,-0.00400563,-0.00168792
13190.000,0.02706605,-0.00912963,9.86453945,0.00196648,-0.00125789,-0.00182628
13200.000,-0.00196358,0.01336100,9.72838918,0.00261905,0.00268051,0.00086512
13210.000,-0.02646709,0.01836766,9.85201059,-0.00091023,-0.00047894,-0.00177750
13220.000,0.04674699,-0.07895905,9.73276101,-0.00198955,-0.00208883,-0.00140564
13230.000,0.02920686,-0.03734042,9.85137963,-0.00206944,-0.00312741,0.00026894
13240.000,-0.08150841,-0.00492050,9.80493816,0.00046919,0.00340159,-0.00150688
13250.000,0.02402335,-0.05155800,9.70831180,0.00059220,0.00062543,-0.00067820
13260.000,0.00856364,0.02632151,9.85702275,0.00148867,0.00155046,0.00048397
13270.000,-0.01792758,0.03878408,9.83093869,-0.00051128,-0.00071506,-0.00290669
13280.000,0.06612025,-0.00276940,9.72015503,-0.00161184,-0.00124402,-0.00241945
13290.000,-0.00338298,0.00442254,9.83255971,0.00087985,0.00239326,-0.00198795
13300.000,-0.07663412,-0.01560224,9.85005518,0.00056688,-0.00206822,-0.00078199
13310.000,-0.00520427,-0.01528672,9.90196632,-0.00138066,0.00120379,-0.00153004
13320.000,-0.05350021,0.06165774,9.85771249,0.00202332,-0.00049144,-0.00147199
13330.000,-0.01125832,-0.00164453,9.80482706,-0.00250661,0.00050641,0.00161734
13340.000,0.00909739,-0.02972707,9.78524259,0.00054664,0.00447766,0.00268616
13350.000,-0.01776123,-0.01616489,9.79111219,-0.00061506,-0.00063605,0.00076567
13360.000,-0.11204124,0.00488245,9.78027661,-0.00167604,0.00233258,0.00054916
13370.000,-0.09334055,-0.01750255,9.78760213,0.00051292,0.00137391,0.00327131
13380.000,0.06376223,-0.02696150,9.84003951,0.00034191,-0.00022608,0.00284279
13390.000,0.06914060,-0.03140344,9.80427514,0.00193510,-0.00064196,-0.00016458
13400.000,0.08643459,0.01144881,9.82533749,0.00039076,0.00072363,-0.00288846
13410.000,-0.02036270,0.03435254,9.80466787,-0.00308497,-0.00177478,-0.00210504
13420.000,-0.09160515,-0.01776163,9.74749106,-0.00128765,0.00126942,-0.00051372
13430.000,0.00561205,-0.04584195,9.83055642,0.00039279,-0.00244861,-0.00109945
13440.000,0.00223817,-0.06240045,9.78202309,0.00117452,0.00118990,-0.00162561
13450.000,0.03102814,0.05739965,9.76152894,0.00032332,0.00439770,-0.00021195
13460.000,-0.05487202,0.09754925,9.80616160,-0.00138637,-0.00034752,0.00000731
13470.000,0.00457345,-0.03696955,9.81741101,-0.00030234,-0.00006271,-0.00306423
13480.000,0.08575478,0.01271826,9.85989816,-0.00192526,-0.00029867,-0.00050816
13490.000,0.00144919,-0.05129016,9.77248817,-0.00113238,-0.00035403,-0.00005589
13500.000,-0.05589011,0.01088933,9.86784444,0.00177883,-0.00019842,0.00062001
13510.000,0.00805055,-0.01538909,9.76716801,-0.00108320,0.00114419,0.00057297
13520.000,0.01777229,-0.06190660,9.74994495,0.00173163,0.00142692,0.00099870
13530.000,0.04500816,-0.01388675,9.79177729,-0.00019683,0.00048988,0.00194797
13540.000,-0.00845330,0.03629355,9.81492513,-0.00130415,-0.00125682,0.00018353
13550.000,-0.03715407,-0.03535461,9.79689446,0.00083056,-0.00164821,-0.00032913
13560.000,0.01511099,-0.00177550,9.80042549,-0.00018800,-0.00443056,-0.00061907
13570.000,0.00231418,-0.00181122,9.76763085,-0.00031464,-0.00032059,0.00265167
13580.000,0.05535255,-0.02411557,9.81311103,-0.00243160,-0.00164925,-0.00540482
13590.000,-0.10301676,-0.01075871,9.75167054,-0.00096183,-0.00079129,-0.00120065
13600.000,-0.04895109,0.12110930,9.81912630,0.00221535,0.00172124,-0.00002525
13610.000,0.06130111,0.04276518,9.85581214,-0.00074123,0.00205238,-0.00022075
13620.000,-0.00995358,0.08032010,9.84898436,-0.00163654,-0.00343250,-0.00106413
13630.000,0.00206675,0.01316448,9.79981338,0.00150929,0.00455308,-0.00005854
13640.000,0.00261196,-0.00218004,9.82572668,-0.00153071,-0.00236993,0.00092189
13650.000,0.08699869,-0.06026071,9.86376774,-0.00352923,0.00110069,0.00145314
13660.000,-0.01841172,0.06348316,9.78997773,0.00087256,-0.00043932,0.00094734
13670.000,0.02063768,-0.00794221,9.72012039,0.00034188,-0.00155625,0.00351803
13680.000,0.08694884,-0.04713768,9.81084414,-0.00070336,0.00155150,-0.00502028
13690.000,-0.05262109,-0.06685008,9.79640301,0.00255294,0.00293753,-0.00012363
13700.000,-0.02967556,-0.05844075,9.80487837,0.00111754,0.00111703,-0.00146912
13710.000,-0.07409534,0.00627369,9.80028366,0.00109424,-0.00161726,-0.00140131
13720.000,-0.12402030,-0.02615550,9.83007050,0.00225389,0.00194932,-0.00159680
13730.000,-0.05317729,0.02558961,9.82828396,-0.00146715,-0.00129119,0.00128099
13740.000,-0.05088607,-0.00061412,9.84789955,-0.00199997,0.00071343,0.00130916
13750.000,-0.04382111,-0.01029053,9.86416196,-0.00017649,0.00202013,-0.00079340
13760.000,-0.04288160,0.02295791,9.75269044,-0.00042771,-0.00195449,0.00184934
13770.000,-0.00804810,0.02233634,9.68642366,-0.00153304,0.00069954,-0.00032789
13780.000,-0.02671615,0.02146660,9.81794221,-0.00210557,-0.00121821,0.00258026
13790.000,-0.02611892,-0.05522910,9.83807324,0.00040332,-0.00201830,0.00042493
13800.000,-0.01612034,0.02726736,9.82566116,-0.00029223,0.00690809,0.00038429
13810.000,-0.02237091,0.05362809,9.77693612,-0.00076125,0.00284006,-0.00386826
13820.000,0.05952270,0.06606463,9.85915573,0.00018864,0.00398886,-0.00041881
13830.000,-0.00902806,0.12735396,9.81424222,-0.00346660,-0.00079184,0.00272240
13840.000,0.01205282,-0.00110307,9.75016168,0.00075214,-0.00167771,-0.00155735
13850.000,0.06475366,-0.02862017,9.85263055,-0.00111940,0.00072240,0.00248930
13860.000,0.05797766,0.03016607,9.77205154,0.00210485,0.00091202,-0.00285060
13870.000,-0.01705391,-0.13385381,9.80082662,-0.00265587,0.00106650,-0.00287847
13880.000,0.04013551,-0.01187525,9.77714599,-0.00045113,0.00060830,-0.00246293
13890.000,-0.01488735,0.06076830,9.80393172,-0.00204852,-0.00018824,0.00081934
13900.000,0.09289581,-0.02853668,9.81751159,0.00212304,0.00121411,-0.00004086
13910.000,-0.02167010,0.10372432,9.81563527,-0.00149239,-0.00214181,-0.00121014
13920.000,0.10640381,-0.02100638,9.88302896,0.00081987,0.00067325,-0.00438840
13930.000,0.00590017,0.04183278,9.74566445,-0.00157135,0.00240902,-0.00003038
13940.000,0.01742070,-0.05345602,9.81950482,-0.00283402,0.00471164,-0.00024690
13950.000,-0.07591950,-0.00470415,9.86143060,0.00076867,0.00079905,-0.00092441
13960.000,0.02737769,-0.06169750,9.71173068,-0.00145515,0.00424335,0.00181699
13970.000,0.02484723,0.07905994,9.75845270,0.00164387,0.00115258,-0.00219626
13980.000,0.10487020,-0.00032466,9.70871532,0.00255506,-0.00168627,0.00037675
13990.000,-0.07804402,0.03849746,9.81312840,-0.00327878,-0.00408172,0.00044657
14000.000,0.07411105,-0.05990624,9.81257474,-0.00161820,-0.00397834,0.00089101
14010.000,0.00033805,-0.00715073,9.78751964,0.00424016,0.00277912,-0.00070504
14020.000,-0.01813497,0.00873229,9.82177905,0.00001769,0.00177541,0.00205366
14030.000,0.01262864,0.06029938,9.74658607,-0.00068707,0.00006836,0.00041044
14040.000,-0.09058418,0.05084825,9.75947375,0.00110775,-0.00026615,-0.00043114
14050.000,-0.01897379,-0.03060498,9.77497438,0.00275966,0.00241904,0.00076366
14060.000,-0.07291320,-0.02847638,9.83911656,0.00343822,-0.00077289,0.00305460
14070.000,-0.00019657,0.02522536,9.78184590,0.00108503,0.00654205,-0.00257649
14080.000,0.04514230,-0.02541809,9.70122213,-0.00137869,0.00083760,0.00060276
14090.000,0.01583119,0.03836924,9.77868805,0.00390028,-0.00133675,0.00161795
14100.000,0.05996031,-0.04253461,9.84018634,0.00232493,0.00140930,-0.00211405
14110.000,0.08723880,0.00183655,9.79532585,0.00281552,0.00245865,0.00100694
14120.000,-0.00528358,0.08141477,9.82678913,0.00040870,0.00045222,-0.00034988
14130.000,0.10721013,0.01396257,9.77396017,0.00128157,0.00006227,-0.00188963
14140.000,-0.02917535,0.00308036,9.70458387,-0.00209718,-0.00150407,0.00025152
14150.000,-0.02374949,-0.02263989,9.81863949,-0.00005391,0.00043069,0.00080871
14160.000,0.09709091,0.00274082,9.71051705,-0.00125464,0.00293132,-0.00072850
14170.000,-0.04569538,0.01311439,9.81129974,-0.00086685,0.00096477,-0.00386626
14180.000,0.08122278,0.04800386,9.85315577,-0.00158107,0.00196215,-0.00366824
14190.000,-0.01085665,0.05495605,9.76185384,0.00223515,0.00302227,-0.00093247
14200.000,0.04841472,-0.01412095,9.73425033,0.00058363,0.00223817,-0.00112730
14210.000,0.02966184,0.06987718,9.78631991,0.00173555,-0.00134230,-0.00114908
14220.000,0.07813809,-0.08279705,9.74681034,-0.00159867,0.00068529,0.00212191
14230.000,-0.00733630,-0.01853819,9.77329333,-0.00036823,-0.00254250,-0.00235959
14240.000,0.00668389,-0.02642952,9.78870127,0.00078920,0.00368823,0.00059312
14250.000,0.01392125,-0.03337684,9.80134909,-0.00077379,0.00153237,-0.00067347
14260.000,-0.03227695,-0.06028102,9.84483511,-0.00075657,-0.00191692,0.00262228
14270.000,0.08538972,0.05322860,9.82323580,-0.00507842,0.00159572,-0.00112225
14280.000,-0.03207642,-0.01434594,9.85950106,-0.00082068,0.00338463,-0.00162317
14290.000,-0.11407434,-0.01816301,9.84335580,-0.00136014,-0.00026079,0.00063265
14300.000,-0.05691402,0.02116941,9.82549946,-0.00088371,-0.00314772,-0.00192658
14310.000,-0.07271662,0.00434891,9.77577774,0.00256267,0.00014955,0.00070686
14320.000,0.02080493,0.03348943,9.82659695,-0.00052284,-0.00131900,0.00315969
14330.000,0.00362962,0.01444356,9.74784675,-0.00037638,-0.00088674,0.00199670
14340.000,-0.00153759,-0.03982416,9.85822694,-0.00144472,-0.00118945,-0.00017522
14350.000,0.03416191,0.03402007,9.89232458,0.00000054,0.00051922,0.00398749
14360.000,-0.01649887,-0.02745037,9.78896986,0.00067250,-0.00475611,0.00045663
14370.000,-0.08011182,-0.07617916,9.83770515,0.00007576,0.00008690,0.00029580
14380.000,-0.06975701,-0.05374563,9.80156401,-0.00005736,-0.00010522,0.00102987
14390.000,-0.02061138,0.04428262,9.80967307,-0.00108416,-0.00189537,0.00585122
14400.000,-0.03992343,0.04858165,9.84308957,-0.00143171,0.00020029,-0.00318778
14410.000,-0.07054917,0.01261333,9.77089616,0.00023294,-0.00186645,-0.00108152
14420.000,-0.03707189,0.09347573,9.81286357,0.00209013,0.00094402,0.00094013
14430.000,-0.01087692,0.00424756,9.85036201,-0.00354241,0.00367379,-0.00258056
14440.000,-0.03508022,-0.02654250,9.83948357,0.00305712,0.00204309,0.00095775
14450.000,-0.07581946,0.04953859,9.72639101,-0.00170997,0.00030318,-0.00113886
14460.000,-0.01228834,-0.07994164,9.75383742,0.00005808,-0.00049974,-0.00427435
14470.000,0.06488334,0.05222289,9.86421611,0.00224357,-0.00016221,-0.00116683
14480.000,-0.07244941,-0.05255281,9.82364363,-0.00112065,0.00071692,-0.00198485
14490.000,0.03576587,-0.03997568,9.77770393,-0.00451035,0.00081426,0.00084077
14500.000,-0.05656738,0.08291226,9.78290221,-0.00039926,-0.00229581,-0.00001967
14510.000,0.00156462,0.00418223,9.86193102,-0.00292906,-0.00205446,-0.00169903
14520.000,-0.04762333,0.05841304,9.74271396,0.00168788,-0.00072522,-0.00109346
14530.000,0.05828601,-0.08576498,9.80142222,0.00390939,0.00070492,0.00048017
14540.000,0.08127186,0.03486281,9.82771211,-0.00073940,-0.00119274,-0.00457073
14550.000,-0.05242076,-0.03674006,9.87386979,0.00193748,0.00089662,-0.00055634
14560.000,0.02361697,0.04451246,9.81033969,-0.00027445,0.00147229,-0.00330751
14570.000,-0.01408657,0.03833308,9.81961765,-0.00117976,-0.00227261,0.00334484
14580.000,-0.00849800,-0.07070035,9.85434541,0.00175131,-0.00440539,-0.00322578
14590.000,0.02200132,-0.03031310,9.86561264,-0.00026469,-0.00094488,-0.00284711
14600.000,0.01219062,0.01316994,9.85084478,0.00388952,0.00062508,0.00075121
14610.000,0.03343533,0.01468372,9.79722075,-0.00138403,0.00144455,-0.00095937
14620.000,0.09918321,-0.03669004,9.84394859,-0.00056669,0.00122200,-0.00345657
14630.000,-0.00419296,0.02273568,9.86832117,0.00319406,0.00036478,0.00236324
14640.000,-0.01557892,0.03009182,9.81992786,-0.00215084,-0.00184633,-0.00252252
14650.000,-0.03206507,0.06290495,9.84220939,0.00050060,0.00013197,-0.00112762
14660.000,-0.02172750,0.05517969,9.76507902,-0.00202814,-0.00253319,-0.00029583
14670.000,-0.00144671,-0.02146119,9.84421560,-0.00093117,-0.00137121,0.00289525
14680.000,-0.02398417,0.03792416,9.83637301,-0.00016465,0.00254009,-0.00126549
14690.000,-0.01876246,0.09148588,9.76938827,0.00048955,-0.00011095,-0.00359430
14700.000,-0.07045070,0.04280496,9.69917960,0.00285668,-0.00027031,0.00129372
14710.000,0.07459084,0.00508769,9.73530075,-0.00150406,-0.00032969,-0.00193288
14720.000,-0.04742323,-0.08170443,9.82579415,0.00247200,0.00062282,0.00053488
14730.000,-0.06634571,0.02510445,9.79140879,0.00271637,0.00231268,0.00133140
14740.000,-0.02376821,0.02546730,9.83782557,-0.00284345,-0.00139136,-0.00220711
14750.000,0.05729014,-0.03168892,9.80515953,0.00145507,0.00034130,-0.00298041
14760.000,-0.03176636,0.00814937,9.76773552,-0.00037749,-0.00298822,-0.00030574
14770.000,-0.02120484,-0.02095003,9.82131805,-0.00331075,0.00105765,0.00055645
14780.000,0.00014775,0.02531508,9.80130017,0.00381590,0.00169575,-0.00104535
14790.000,-0.02898763,0.00956414,9.76079080,0.00163614,-0.00279533,-0.00212451
14800.000,0.02845789,-0.01427326,9.81687597,0.00066629,-0.00431650,-0.00027393
14810.000,0.01100120,0.08007727,9.82572919,-0.00204053,0.00020261,-0.00235512
14820.000,0.00366095,-0.03461854,9.84676926,0.00084850,0.00003865,0.00260105
14830.000,-0.01351028,-0.07627401,9.79689559,0.00001347,-0.00153729,-0.00069349
14840.000,0.00957449,-0.04092528,9.80074098,-0.00268847,0.00081227,0.00097995
14850.000,-0.00357414,-0.00279539,9.86838209,0.00493839,-0.00124367,-0.00073537
14860.000,-0.06557789,0.10169012,9.80500823,-0.00115152,0.00042423,0.00056357
14870.000,0.02901056,0.00639181,9.72034882,-0.00010675,0.00217265,-0.00143379
14880.000,-0.05282888,-0.02621379,9.85633599,0.00197235,0.00107700,-0.00022392
14890.000,-0.06921606,-0.04278687,9.81489254,-0.00062987,0.00485334,-0.00183390
14900.000,0.02364282,0.02213604,9.75744974,0.00059587,-0.00150044,0.00337134
14910.000,-0.07989957,0.02695298,9.87830620,0.00177365,-0.00135670,0.00082527
14920.000,-0.01726508,-0.05723432,9.78515598,0.00051539,-0.00103325,0.00131639
14930.000,0.01970313,-0.01165716,9.87700968,0.00077861,0.00043140,-0.00028379
14940.000,0.04624854,0.00921690,9.70893386,0.00086211,0.00045878,-0.00008178
14950.000,-0.03461318,-0.02740112,9.76931920,-0.00128203,0.00338753,-0.00230082
14960.000,0.00954106,0.01057210,9.72294626,0.00085527,-0.00064048,0.00331911
14970.000,0.04022990,0.00080619,9.82453207,-0.00180697,-0.00147053,-0.00213963
14980.000,0.03724132,-0.03834849,9.86959528,0.00064693,-0.00274610,-0.00115705
14990.000,-0.00708968,0.07562736,9.76195338,-0.00430473,0.00048084,-0.00120043
15000.000,0.07191233,-0.04519920,9.93408906,-0.00297611,0.00217122,-0.00281533
15010.000,-0.04759169,0.05282934,9.78853029,0.00159389,-0.00140208,0.00300314
15020.000,0.03575112,-0.00202625,9.75208848,0.00149910,-0.00201610,-0.00203416
15030.000,-0.13984151,0.12537916,9.81030121,0.00121105,-0.00052476,-0.00053868
15040.000,-0.14717650,0.01513043,9.84112933,0.00254448,-0.00149738,-0.00001740
15050.000,-0.03575404,-0.03541773,9.80565791,0.00190926,0.00161823,-0.00051920
15060.000,0.06012971,0.00499801,9.87981127,-0.00057781,-0.00347763,-0.00231245
15070.000,0.05656096,-0.01143924,9.72812381,0.00063672,-0.00027576,-0.00005010
15080.000,-0.01133354,0.02632412,9.80964467,0.00207851,-0.00237465,-0.00067230
15090.000,0.03172124,0.04317100,9.83319293,0.00037742,-0.00140832,0.00266303
15100.000,-0.01376643,0.02599417,9.91842421,0.00181717,0.00058027,0.00338856
15110.000,-0.07449398,0.02436437,9.89825016,-0.00299779,-0.00001545,0.00053279
15120.000,-0.05872950,0.05005500,9.86338586,-0.00182911,0.00060143,-0.00241302
15130.000,-0.07384231,0.03561809,9.79308420,0.00138111,0.00211567,0.00034483
15140.000,-0.00302229,-0.01624774,9.87228445,-0.00370560,-0.00193359,0.00092961
15150.000,-0.00560605,-0.02316568,9.78433122,0.00004240,-0.00538801,0.00228588
15160.000,-0.01704950,-0.05397678,9.78304330,0.00027331,-0.00163815,0.00179016
15170.000,0.00588348,0.02021907,9.86685195,-0.00135508,-0.00137690,0.00051699
15180.000,0.01204894,-0.02372349,9.75609800,0.00356208,0.00324717,0.00051974
15190.000,0.01472434,-0.00586854,9.80243414,0.00092477,0.00158300,-0.00271361
15200.000,0.01312648,0.02596945,9.82013676,0.00128830,-0.00146815,0.00043735
15210.000,-0.00852591,-0.04006909,9.77601076,-0.00045494,0.00100242,0.00003664
15220.000,0.04241299,-0.02117931,9.73934786,-0.00614606,0.00035778,0.00108478
15230.000,0.05797873,-0.04711892,9.80841236,0.00089186,-0.00020517,0.00308485
15240.000,0.02455815,0.00016092,9.68274311,0.00062275,0.00087535,0.00188955
15250.000,0.01952440,0.06632316,9.84597661,0.00072519,-0.00179604,-0.00507606
15260.000,-0.10619970,0.10636222,9.74035742,-0.00095424,0.00152189,-0.00090553
15270.000,-0.05392097,0.03909388,9.82929207,0.00160236,0.00029746,0.00237685
15280.000,0.00401676,-0.02847031,9.87319284,-0.00059043,0.00093523,0.00081254
15290.000,-0.00196629,-0.07829085,9.86826500,0.00300320,-0.00341327,-0.00111599
15300.000,0.01096425,0.05575034,9.83527743,0.00169703,0.00309179,0.00028103
15310.000,0.11958114,-0.01549851,9.80745466,-0.00058541,0.00151424,0.00153835
15320.000,0.03599153,-0.01518961,9.84678189,-0.00071932,0.00066061,0.00216206
15330.000,-0.14737065,-0.00363916,9.80150038,0.00378092,0.00148521,-0.00011065
15340.000,-0.00696076,-0.04384635,9.85195614,-0.00010815,0.00111479,-0.00043021
15350.000,-0.02522224,0.01001372,9.80479182,0.00037928,-0.00211575,0.00239532
15360.000,0.02501821,0.07154804,9.81640519,-0.00228037,-0.00086422,-0.00000354
15370.000,0.04206985,0.00724351,9.78134959,0.00398197,-0.00084537,-0.00153068
15380.000,-0.00707788,-0.01417712,9.83505811,-0.00110163,0.00331779,-0.00582327
15390.000,0.00533260,-0.03971323,9.79555189,-0.00200548,0.00546258,0.00098326
15400.000,-0.07629583,-0.00923016,9.80671529,-0.00221197,-0.00008384,-0.00006351
15410.000,0.09042241,0.06742260,9.75494627,0.00169225,0.00367900,0.00057876
