time,seconds_elapsed,z,y,x
1784098586798339800,0.07533984375,-0.16119599342346191,0.008058999665081501,0.0965920016169548
1784098586808423400,0.08542333984375,-0.14530900120735168,0.04761099815368652,0.0405460000038147
1784098586818508300,0.09550830078125,-0.11664900183677673,0.05314299836754799,-0.0014349999837577343
1784098586828527600,0.105527587890625,-0.1613679975271225,0.03531799837946892,0.02609499916434288
1784098586838677800,0.115677734375,-0.2477159947156906,0.0119420001283288,0.1412000060081482
1784098586848762400,0.125762451171875,-0.37749698758125305,0.008078999817371368,0.27850601077079773
1784098586858770700,0.135770751953125,-0.6873260140419006,0.05765200033783913,0.43125298619270325
1784098586868932000,0.14593212890625,-0.9503980278968811,0.14076000452041626,0.45313599705696106
1784098586878912300,0.155912353515625,-0.9154639840126038,0.17665499448776245,0.25964298844337463
1784098586889101300,0.166101318359375,-0.7851639986038208,0.1735289990901947,0.1476369947195053
1784098586899114800,0.17611474609375,-1.0091689825057983,0.24809400737285614,0.1418589949607849
1784098586909270800,0.186270751953125,-1.297381043434143,0.4363679885864258,0.18739700317382812
1784098586919256600,0.196256591796875,-0.9535509943962097,0.5071280002593994,0.4495849907398224
1784098586929327400,0.206327392578125,-0.4596270024776459,0.31488698720932007,0.8958020210266113
1784098586939525000,0.216525146484375,-0.14691899716854095,0.13841399550437927,1.3083189725875854
1784098586949530000,0.226530029296875,-0.601140022277832,-0.046872999519109726,1.6849230527877808
1784098586959601000,0.236600830078125,-1.1265350580215454,-0.3714439868927002,2.189624071121216
1784098586969671700,0.246671630859375,-0.9061040282249451,-0.8666200041770935,2.5779271125793457
1784098586979742500,0.256742431640625,-0.8175060153007507,-1.0363730192184448,2.4556710720062256
1784098586989874200,0.266874267578125,-0.6109709739685059,-1.0064150094985962,1.9359580278396606
1784098586999945000,0.276945068359375,0.3256010115146637,-1.1540299654006958,1.3703639507293701
1784098587010046500,0.28704638671875,1.1161359548568726,-1.05594801902771,1.0553950071334839
1784098587020086800,0.297086669921875,0.9798099994659424,-0.8389490246772766,1.0305609703063965
1784098587030287600,0.30728759765625,0.234375,-0.8193730115890503,1.1992770433425903
1784098587040372200,0.317372314453125,-0.8151329755783081,-0.537680983543396,1.3888050317764282
1784098587050360000,0.327360107421875,-1.1803120374679565,0.7217620015144348,1.177865982055664
1784098587060430800,0.337430908203125,0.41973400115966797,2.718208074569702,0.2743160128593445
1784098587070532400,0.347532470703125,2.5579190254211426,3.8688910007476807,-0.651593029499054
1784098587080603100,0.35760302734375,2.6762750148773193,2.497349977493286,-0.7779060006141663
1784098587090734800,0.36773486328125,2.1068620681762695,0.05120699852705002,-0.3300969898700714
1784098587100805600,0.3778056640625,1.8696999549865723,-0.837867021560669,0.07117199897766113
1784098587110876400,0.38787646484375,0.8328250050544739,-0.43547800183296204,0.29828500747680664
1784098587120978000,0.39797802734375,-0.2822740077972412,-0.2995949983596802,0.6802639961242676
1784098587131048700,0.408048583984375,-0.6910439729690552,-0.6823310256004333,1.1442170143127441
1784098587141150000,0.41814990234375,-0.42336198687553406,-0.8010500073432922,1.358991026878357
1784098587151190300,0.428190185546875,0.21952499449253082,-0.3482469916343689,1.1709109544754028
1784098587161389000,0.43838916015625,0.774590015411377,0.141757994890213,0.7918220162391663
1784098587171362300,0.4483623046875,1.1530319452285767,0.28690800070762634,0.5555329918861389
1784098587181494000,0.458493896484375,1.237710952758789,0.24845699965953827,0.4495239853858948
1784098587191534300,0.468534423828125,0.7727559804916382,0.2508220076560974,0.3677409887313843
1784098587201635800,0.4786357421875,0.024627000093460083,0.16725699603557587,0.35761600732803345
1784098587211812900,0.488812744140625,-0.25262200832366943,-0.07289499789476395,0.43042001128196716
1784098587221777400,0.49877734375,-0.13477399945259094,-0.3563530147075653,0.5209590196609497
1784098587231878700,0.508878662109375,-0.25713199377059937,-0.5352789759635925,0.5510470271110535
1784098587241949400,0.518949462890625,-0.7189859747886658,-0.5955449938774109,0.5738490223884583
1784098587252081200,0.5290810546875,-0.8297989964485168,-0.8156359791755676,0.7484019994735718
1784098587262236400,0.539236328125,-0.5550010204315186,-0.9979000091552734,0.9679219722747803
1784098587272321000,0.549321044921875,-0.32449498772621155,-0.7198699712753296,1.0567009449005127
1784098587282293800,0.559293701171875,-0.2507370114326477,-0.3106420040130615,1.1457979679107666
1784098587292425500,0.569425537109375,-0.4456689953804016,-0.10926699638366699,1.3699300289154053
1784098587302465800,0.5794658203125,-0.9056959748268127,-0.07725699990987778,1.5804649591445923
1784098587312660000,0.589659912109375,-1.2365920543670654,-0.05066100135445595,1.6065089702606201
1784098587322637800,0.599637939453125,-1.1181039810180664,0.2258860021829605,1.437006950378418
1784098587332708900,0.609708984375,-0.9920870065689087,0.5250790119171143,1.3253170251846313
1784098587342840600,0.619840576171875,-0.8158000111579895,0.7597320079803467,1.5273940563201904
1784098587352881000,0.629880859375,-0.31595999002456665,1.15706205368042,1.9453599452972412
1784098587363083800,0.640083740234375,0.15586499869823456,1.722540020942688,2.213776111602783
1784098587373083400,0.65008349609375,0.32070600986480713,2.298866033554077,2.057490110397339
1784098587383154200,0.660154296875,0.21706099808216095,2.8091540336608887,1.7088229656219482
1784098587393225200,0.67022509765625,0.07910899817943573,3.2623279094696045,1.4854789972305298
1784098587403357000,0.68035693359375,0.03759700059890747,3.619381904602051,1.404304027557373
1784098587413507300,0.69050732421875,-0.11190500110387802,3.798819065093994,1.370406985282898
1784098587423529000,0.700529052734375,-0.7863789796829224,3.7218921184539795,1.2039239406585693
1784098587433599700,0.710599853515625,-2.017071008682251,3.5170400142669678,0.705826997756958
1784098587443670800,0.7206708984375,-3.179490089416504,3.2687430381774902,0.13479900360107422
1784098587453772000,0.73077197265625,-3.7997210025787354,3.141874074935913,0.10919500142335892
1784098587463931100,0.74093115234375,-3.583585023880005,3.1792349815368652,0.9094139933586121
1784098587473944000,0.750944091796875,-2.9276700019836426,3.250080108642578,1.8446910381317139
1784098587483984400,0.760984375,-2.661163091659546,3.4086759090423584,2.0698540210723877
1784098587494185200,0.771185302734375,-2.934699058532715,3.4158310890197754,1.3633259534835815
1784098587504270000,0.78127001953125,-3.061816930770874,3.28562593460083,-0.2087630033493042
1784098587514354700,0.791354736328125,-2.792124032974243,3.19561505317688,-2.0207550525665283
1784098587524328700,0.80132861328125,-2.756671905517578,3.052741050720215,-3.445586919784546
1784098587534429700,0.8114296875,-2.8938560485839844,2.9690310955047607,-4.321739196777344
1784098587544531200,0.82153125,-2.6539289951324463,3.008603096008301,-4.5413031578063965
1784098587559735800,0.83673583984375,-1.0447920560836792,2.6555569171905518,-2.8588430881500244
1784098587574863000,0.851863037109375,0.26762399077415466,2.021944999694824,-1.8965970277786255
1784098587584947700,0.86194775390625,0.44092699885368347,1.2897900342941284,-1.453874945640564
1784098587595032600,0.872032470703125,0.6346039772033691,0.7849950194358826,-1.3717230558395386
1784098587605117200,0.8821171875,1.1591880321502686,0.4108380079269409,-1.9958300590515137
1784098587615202000,0.8922021484375,1.6070810556411743,0.29638999700546265,-3.354830026626587
1784098587625286700,0.90228662109375,1.948161005973816,0.14797599613666534,-4.690218925476074
1784098587635371500,0.91237158203125,2.1814050674438477,0.00815299991518259,-5.266430854797363
1784098587645456100,0.9224560546875,1.8683099746704102,-0.6591950058937073,-4.791192054748535
1784098587655541000,0.932541015625,1.0842299461364746,-1.7745660543441772,-3.705677032470703
1784098587665625600,0.94262548828125,0.6204299926757812,-2.8171350955963135,-2.017874002456665
1784098587675710500,0.95271044921875,0.5688740015029907,-3.4498538970947266,0.12156999856233597
1784098587685795300,0.96279541015625,0.6840940117835999,-3.6335370540618896,1.6102550029754639
1784098587695880000,0.9728798828125,0.783623993396759,-3.0953309535980225,1.6423920392990112
1784098587705964800,0.98296484375,1.46573805809021,-2.6943159103393555,0.9020959734916687
1784098587716049400,0.99304931640625,2.319463014602661,-2.854671001434326,0.030966000631451607
1784098587726134000,1.003134033203125,2.53590989112854,-2.729177951812744,-0.6482059955596924
1784098587736219000,1.013218994140625,2.9243099689483643,-2.3067069053649902,-0.8882439732551575
1784098587746303500,1.023303466796875,3.119503974914551,-2.319010019302368,-0.5995000004768372
1784098587756388400,1.033388427734375,3.5556321144104004,-2.5167529582977295,-0.3999829888343811
1784098587766473200,1.04347314453125,3.5545220375061035,-3.226958990097046,-0.12675799429416656
1784098587776557800,1.053557861328125,3.2951459884643555,-3.6921188831329346,-0.0278290007263422
1784098587786642700,1.063642578125,2.853692054748535,-3.8076539039611816,-0.3382290005683899
1784098587796727300,1.073727294921875,2.326153039932251,-3.08278489112854,-0.9921389818191528
1784098587806812200,1.083812255859375,2.3523690700531006,-2.281277894973755,-1.3211630582809448
1784098587816896800,1.093896728515625,2.7274880409240723,-2.022787094116211,-1.3375810384750366
1784098587826981600,1.103981689453125,2.833815097808838,-2.2160229682922363,-1.0953110456466675
1784098587837066200,1.114066162109375,2.125904083251953,-2.4961249828338623,-0.6119109988212585
1784098587847151000,1.124151123046875,1.008288025856018,-2.7889299392700195,0.031215999275445938
1784098587857235700,1.134235595703125,0.11503099650144577,-3.065993070602417,0.7326250076293945
1784098587867320600,1.144320556640625,-0.820743978023529,-2.829782009124756,1.0056250095367432
1784098587877405200,1.1544052734375,-0.6145830154418945,-2.632707118988037,1.1192740201950073
1784098587887490000,1.164489990234375,-0.06160999834537506,-2.592534065246582,0.9411060214042664
1784098587897575000,1.174574951171875,0.9710000157356262,-2.6246719360351562,0.48804399371147156
1784098587907659500,1.184659423828125,1.9663419723510742,-2.4049789905548096,-0.29568201303482056
1784098587917744400,1.194744384765625,2.164057970046997,-1.6573410034179688,-1.3559319972991943
1784098587927829000,1.2048291015625,8.897343635559082,-4.705183982849121,2.5208470821380615
1784098587937913900,1.214913818359375,1.278946042060852,-7.463564872741699,2.6274900436401367
1784098587947998500,1.22499853515625,-1.7233359813690186,-11.735505104064941,-0.5183089971542358
1784098587958083300,1.235083251953125,-1.7340749502182007,7.353514194488525,0.8024049997329712
1784098587968168000,1.24516796875,0.3245919942855835,-3.767098903656006,-0.05874599888920784
1784098587978252800,1.255252685546875,4.683985233306885,1.5382449626922607,1.4287559986114502
1784098587988337400,1.26533740234375,0.6599829792976379,-0.3721559941768646,0.1389939934015274
1784098587998422300,1.27542236328125,0.7764179706573486,-0.2647939920425415,0.4673599898815155
1784098588008507100,1.285507080078125,-0.009975999593734741,-0.1429229974746704,0.0766339972615242
1784098588018591700,1.295591796875,-0.15727899968624115,-0.1490900069475174,-0.04468600079417229
1784098588028676600,1.305676513671875,-0.08277499675750732,0.19463300704956055,0.236502006649971
1784098588038761500,1.315761474609375,0.007532000076025724,0.05999600142240524,0.16647499799728394
1784098588048846000,1.32584619140625,0.02167700044810772,0.008070999756455421,0.10591600090265274
1784098588058930700,1.3359306640625,0.17825500667095184,0.047164998948574066,0.1623850017786026
1784098588069015600,1.346015625,0.09149599820375443,-0.0130390003323555,0.11666099727153778
1784098588079100200,1.35610009765625,0.08969199657440186,-0.003855000017210841,0.05659100040793419
1784098588089185000,1.36618505859375,-0.04445800185203552,-0.029718000441789627,0.035686999559402466
1784098588099270000,1.376269775390625,0.17329899966716766,-0.009461999870836735,0.13341599702835083
1784098588109354500,1.3863544921875,2.317394971847534,-0.33852800726890564,0.0678509995341301
1784098588119439400,1.396439453125,0.4331510066986084,0.08002399653196335,0.05851700156927109
1784098588129524000,1.40652392578125,-1.629686951637268,0.13429300487041473,0.46049100160598755
1784098588139608800,1.41660888671875,0.48584800958633423,0.30701398849487305,0.33728399872779846
1784098588149693400,1.426693359375,0.26244598627090454,-0.019178999587893486,0.11557099968194962
1784098588159778300,1.4367783203125,-0.9531599879264832,-0.9517639875411987,-0.5356979966163635
1784098588169863000,1.44686279296875,0.9956669807434082,0.13775800168514252,-1.655377984046936
1784098588179947800,1.45694775390625,-1.9846409559249878,2.1211140155792236,-1.4869840145111084
1784098588190032400,1.467032470703125,-5.202823162078857,-0.4320490062236786,-1.2306979894638062
1784098588200117200,1.4771171875,-1.6935559511184692,0.14983800053596497,-3.4114530086517334
1784098588210201900,1.487201904296875,-0.8207460045814514,0.036114998161792755,-3.8193271160125732
1784098588220286700,1.49728662109375,1.1008390188217163,-0.914002001285553,-3.9061319828033447
1784098588230371600,1.50737158203125,2.7791030406951904,-3.509542942047119,9.933850288391113
1784098588240456200,1.517456298828125,-11.956094741821289,3.7327919006347656,2.256074905395508
1784098588250541000,1.527541015625,11.325571060180664,-2.7565391063690186,6.166292190551758
1784098588260625700,1.537625732421875,0.04261999949812889,3.2753489017486572,-1.9866410493850708
1784098588270710500,1.54771044921875,2.9164021015167236,-1.3344589471817017,0.6538940072059631
1784098588280795400,1.55779541015625,-0.3642520010471344,0.4829840064048767,0.020888999104499817
1784098588290880000,1.5678798828125,-0.5442870259284973,0.06329400092363358,0.09115400165319443
1784098588300964600,1.577964599609375,-1.5310989618301392,-0.06296300143003464,0.34087300300598145
1784098588311049500,1.588049560546875,-1.5713260173797607,-0.2723410129547119,0.17200599610805511
1784098588321134000,1.598134033203125,-2.156928062438965,-0.2624489963054657,0.2355470061302185
1784098588331219000,1.608218994140625,-3.6238439083099365,-0.6020939946174622,0.24085000157356262
1784098588341303800,1.6183037109375,-4.33352518081665,-0.4273270070552826,0.21865199506282806
1784098588351388400,1.628388427734375,-3.766140937805176,-0.6512640118598938,0.12848499417304993
1784098588361473300,1.638473388671875,1.386262059211731,-1.0020509958267212,0.12399999797344208
1784098588371558000,1.648557861328125,12.219742774963379,0.08873999863862991,1.0171200037002563
1784098588381642500,1.658642578125,5.99202823638916,2.916188955307007,-2.7319579124450684
1784098588391727400,1.668727294921875,-0.9530119895935059,-0.3182690143585205,0.5954220294952393
1784098588401812000,1.67881201171875,-1.1519360542297363,-0.11197499930858612,0.03229700028896332
1784098588411896800,1.688896728515625,0.6618630290031433,0.03418000042438507,0.10532499849796295
1784098588421981700,1.698981689453125,0.6258760094642639,-0.03191100060939789,0.14198599755764008
1784098588432066300,1.70906640625,-1.1740479469299316,-0.20927000045776367,0.13205699622631073
1784098588442151200,1.719151123046875,-4.907692909240723,-0.6674540042877197,0.555059015750885
1784098588452235800,1.72923583984375,-7.0661468505859375,-1.4788329601287842,0.6765469908714294
1784098588462320600,1.739320556640625,-6.2989702224731445,-1.436890959739685,1.5539840459823608
1784098588472405200,1.7494052734375,-2.492094039916992,-0.2220190018415451,0.7806199789047241
1784098588482490000,1.759489990234375,2.970798969268799,2.099273920059204,-1.6226329803466797
1784098588492574700,1.76957470703125,13.074305534362793,-0.44481000304222107,1.0625840425491333
1784098588502659600,1.77965966796875,14.133172988891602,-0.4445360004901886,-3.289989948272705
1784098588512744400,1.789744384765625,-12.539932250976562,-1.2762329578399658,1.4795759916305542
1784098588522829000,1.7998291015625,-0.2773909866809845,1.5713969469070435,-2.436598062515259
1784098588532914000,1.809913818359375,-3.0433120727539062,1.140660047531128,0.05989899858832359
1784098588542998500,1.81999853515625,8.872833251953125,-0.24861900508403778,-1.2512999773025513
1784098588553083400,1.83008349609375,-1.1766799688339233,0.23176099359989166,0.4915040135383606
1784098588563168300,1.840168212890625,-3.468419075012207,-0.3056049942970276,0.5398640036582947
1784098588573252900,1.8502529296875,4.669349193572998,-0.023780999705195427,-0.7232509851455688
1784098588583337700,1.860337646484375,-2.548567056655884,-0.22981500625610352,0.4806370139122009
1784098588593422300,1.87042236328125,1.5705029964447021,-0.10414700210094452,-0.10366199910640717
1784098588603507200,1.880507080078125,-0.7244629859924316,-0.14429700374603271,0.08068200200796127
1784098588613591800,1.890591796875,0.551023006439209,-0.16120900213718414,0.007625000085681677
1784098588623676700,1.9006767578125,0.02923399955034256,-0.1459999978542328,0.07618000358343124
1784098588633761500,1.910761474609375,0.012426000088453293,-0.18663200736045837,0.01630299910902977
1784098588643846100,1.92084619140625,0.36603298783302307,-0.1448650062084198,0.013950999826192856
1784098588653931000,1.930930908203125,-0.1069289967417717,-0.16452699899673462,0.06392599642276764
1784098588664016000,1.941015869140625,0.28571200370788574,-0.14057600498199463,-0.0008909999742172658
1784098588674100500,1.9511005859375,0.10243699699640274,-0.15782499313354492,0.037466999143362045
1784098588684185300,1.961185302734375,0.042110998183488846,-0.1643269956111908,0.027560999616980553
1784098588694270000,1.97127001953125,0.2664969861507416,-0.1585720032453537,0.022655000910162926
1784098588704354800,1.981354736328125,-0.028961999341845512,-0.16434599459171295,0.029657000675797462
1784098588714439700,1.991439697265625,0.20053499937057495,-0.15905700623989105,0.024653000757098198
1784098588724524300,2.001524169921875,0.08231200277805328,-0.1457740068435669,0.029103999957442284
1784098588734609200,2.011609130859375,0.07700999826192856,-0.13784800469875336,0.03130999952554703
1784098588744693800,2.02169384765625,0.13632600009441376,-0.14664499461650848,0.02389799989759922
1784098588754778600,2.031778564453125,0.08057600259780884,-0.14326100051403046,0.028588000684976578
1784098588764863500,2.041863525390625,0.08246800303459167,-0.1353520005941391,0.03798000141978264
1784098588774948000,2.051947998046875,0.12501999735832214,-0.13217400014400482,0.03525400161743164
1784098588785033000,2.062032958984375,0.059762001037597656,-0.13367299735546112,0.04226699844002724
1784098588795117800,2.072117919921875,0.11912299692630768,-0.12817299365997314,0.042054999619722366
1784098588805202400,2.082202392578125,0.09692300111055374,-0.1224370002746582,0.051419999450445175
1784098588815287300,2.092287353515625,0.08442000299692154,-0.11927299946546555,0.05106300115585327
1784098588825372000,2.102371826171875,0.11498299986124039,-0.11846700310707092,0.048253998160362244
1784098588835456800,2.112456787109375,0.09048400074243546,-0.11287300288677216,0.047915998846292496
1784098588845541400,2.122541259765625,0.09472300112247467,-0.12404599785804749,0.05237000063061714
1784098588855626200,2.132626220703125,0.11334499716758728,-0.11848600208759308,0.049699001014232635
1784098588865710800,2.1427109375,0.10554999858140945,-0.11999300122261047,0.05428700149059296
1784098588875795700,2.152795654296875,0.1049489974975586,-0.1191210001707077,0.051603998988866806
1784098588885880300,2.16288037109375,0.11392699927091599,-0.12064900249242783,0.05127200111746788
1784098588895965200,2.172965087890625,0.10618499666452408,-0.12462499737739563,0.04382000118494034
1784098588906050000,2.183050048828125,0.10084100067615509,-0.12381699681282043,0.04120299965143204
1784098588916134700,2.193134765625,0.10263299942016602,-0.12054900079965591,0.03854399919509888
1784098588926219500,2.203219482421875,0.09724800288677216,-0.12686499953269958,0.028776999562978745
1784098588936304400,2.213304443359375,0.08951900154352188,-0.11889199912548065,0.03095800057053566
1784098588946389000,2.223388916015625,0.10810799896717072,-0.12764699757099152,0.02363399975001812
1784098588956473900,2.233473876953125,0.09311699867248535,-0.1243399977684021,0.025874000042676926
1784098588966558500,2.243558349609375,0.09977100044488907,-0.12836000323295593,0.01849599927663803
1784098588976643300,2.253643310546875,0.10873500257730484,-0.12507499754428864,0.011105000041425228
1784098588986728200,2.263728271484375,0.09375,-0.1241689994931221,0.015876999124884605
1784098588996812800,2.273812744140625,0.09561699628829956,-0.12818600237369537,0.006254000123590231
1784098589006897700,2.283897705078125,0.09261800348758698,-0.12970100343227386,0.018154000863432884
1784098589016982500,2.293982421875,0.10638199746608734,-0.1264290064573288,0.013306000269949436
1784098589027067100,2.304067138671875,0.0938510000705719,-0.12561200559139252,0.01797799952328205
1784098589037152000,2.314152099609375,0.10768300294876099,-0.12483499944210052,0.01783199980854988
1784098589047236900,2.32423681640625,0.08557700365781784,-0.1240219995379448,0.015292000025510788
1784098589057321700,2.33432177734375,0.11618900299072266,-0.1232760027050972,0.029381999745965004
1784098589067406300,2.34440625,0.0964059978723526,-0.10799399763345718,0.01719300076365471
1784098589077491200,2.3544912109375,0.093469999730587,-0.10480500012636185,0.04102199897170067
1784098589087576000,2.364576171875,0.114546999335289,-0.1089090034365654,0.04321099817752838
1784098589097660700,2.37466064453125,0.09247300028800964,-0.12011799961328506,0.05473100021481514
1784098589107745500,2.38474560546875,0.15887700021266937,-0.11201299726963043,0.051872000098228455
1784098589117830400,2.394830322265625,0.12228599935770035,-0.09665799885988235,0.022867999970912933
1784098589127915000,2.4049150390625,-0.00037799999699927866,-0.06710699945688248,0.08502600342035294
1784098589138000000,2.414999755859375,0.19577300548553467,-0.09798499941825867,0.00795700028538704
1784098589148084700,2.425084716796875,-0.008320000022649765,-0.1019119992852211,0.07972399890422821
1784098589158169300,2.43516943359375,0.07515499740839005,-0.12539100646972656,0.021727999672293663
1784098589168254200,2.445254150390625,0.1895810067653656,-0.14143000543117523,0.04544200003147125
1784098589178339000,2.455339111328125,0.05468299984931946,-0.12107100337743759,0.04041999951004982
1784098589188423700,2.465423583984375,0.0924300029873848,-0.09152399748563766,0.032951001077890396
1784098589198508500,2.475508544921875,0.09918399900197983,-0.10526400059461594,0.02322000078856945
1784098589208593200,2.48559326171875,0.017301000654697418,-0.09977000206708908,0.030309999361634254
1784098589218678000,2.495677978515625,0.12706999480724335,-0.13276000320911407,0.01572299934923649
1784098589228763000,2.505762939453125,0.11208999902009964,-0.12946100533008575,0.006188000086694956
1784098589238847500,2.515847412109375,0.04202200099825859,-0.11176899820566177,0.013326000422239304
1784098589248932400,2.525932373046875,0.12058199942111969,-0.11829599738121033,0.01321099977940321
1784098589259017200,2.536017333984375,0.10571599751710892,-0.10319600254297256,-0.0059710000641644
1784098589269101800,2.546101806640625,0.04058700054883957,-0.09051100164651871,0.03715600073337555
1784098589279186700,2.556186767578125,0.1048469990491867,-0.08755899965763092,0.0009180000051856041
1784098589289271600,2.566271484375,0.1834779977798462,-0.1253110021352768,0.005781999789178371
1784098589299356400,2.5763564453125,0.06061200052499771,-0.08588399738073349,0.048806000500917435
1784098589309441000,2.58644091796875,0.14394299685955048,-0.07801999896764755,-0.004118999931961298
1784098589319526000,2.59652587890625,0.17218799889087677,-0.07251700013875961,0.01759300008416176
1784098589329610800,2.60661083984375,-0.010293000377714634,-0.04780599847435951,0.053387001156806946
1784098589339695400,2.6166953125,0.07574199885129929,-0.03561300039291382,0.012257999740540981
1784098589349780200,2.6267802734375,0.19558000564575195,-0.14832699298858643,-0.014014000073075294
1784098589359865000,2.636864990234375,-0.011114000342786312,-0.17589199542999268,0.12460900098085403
1784098589369949700,2.64694970703125,0.25865301489830017,-0.10533399879932404,0.00381499994546175
1784098589380034600,2.65703466796875,0.1907150000333786,-0.02978299930691719,0.03283200040459633
1784098589390119400,2.667119384765625,-0.1282069981098175,0.021219000220298767,0.023274000734090805
1784098589400204300,2.677204345703125,0.11150000244379044,-0.06060900166630745,0.04937500134110451
1784098589410289000,2.687288818359375,0.10172899812459946,-0.1082099974155426,-0.0010720000136643648
1784098589420373800,2.697373779296875,-0.035232000052928925,-0.12424500286579132,0.0563029982149601
1784098589430458600,2.707458740234375,0.10808800160884857,-0.13094200193881989,0.008090999908745289
1784098589440543200,2.717543212890625,0.11709199845790863,-0.09658200293779373,0.04625599831342697
1784098589450628400,2.72762841796875,-0.024713000282645226,-0.06465300172567368,0.04362399876117706
1784098589460713000,2.737712890625,0.12361200153827667,-0.1075809970498085,0.02185700088739395
1784098589470797800,2.7477978515625,0.07525300234556198,-0.10688400268554688,0.04092700034379959
1784098589480882400,2.75788232421875,0.03644900023937225,-0.09897000342607498,0.028752999380230904
1784098589490967300,2.76796728515625,0.11739599704742432,-0.10308899730443954,0.02144400030374527
1784098589501052200,2.77805224609375,0.09049300104379654,-0.08788999915122986,0.014267999678850174
1784098589511137000,2.788136962890625,0.02304599992930889,-0.07531499862670898,0.03817399963736534
1784098589521222000,2.798221923828125,0.1329369992017746,-0.09890300035476685,-0.005193000193685293
1784098589531306500,2.808306396484375,0.06776999682188034,-0.07897499948740005,0.018834000453352928
1784098589541391400,2.818391357421875,0.06503500044345856,-0.08565899729728699,0.018710000440478325
1784098589551476200,2.828476318359375,0.12453600019216537,-0.08034899830818176,0.00658900011330843
1784098589561560800,2.838560791015625,0.07614000141620636,-0.086776003241539,0.011389000341296196
1784098589571645700,2.848645751953125,0.07576099783182144,-0.07424700260162354,0.006496999878436327
1784098589581730600,2.85873046875,0.10415100306272507,-0.07613799721002579,0.0016339999856427312
1784098589591815400,2.8688154296875,0.08220099657773972,-0.07075700163841248,0.006465999875217676
1784098589601900300,2.878900390625,0.06982800364494324,-0.06537800282239914,0.011122000403702259
1784098589611985000,2.88898486328125,0.11022599786520004,-0.06732399761676788,-0.0009510000236332417
1784098589622069800,2.89906982421875,0.057165998965501785,-0.06435900181531906,0.015720000490546227
1784098589632154600,2.909154541015625,0.07843700051307678,-0.06395299732685089,0.015530000440776348
1784098589642239500,2.919239501953125,0.08045600354671478,-0.06579600274562836,0.017734000459313393
1784098589652324000,2.929323974609375,0.06576599925756454,-0.06531699746847153,0.019982999190688133
1784098589662409000,2.939408935546875,0.04625700041651726,-0.06240199878811836,0.03418999910354614
1784098589672493800,2.949493896484375,0.09389399737119675,-0.07161399722099304,0.021911999210715294
1784098589682578700,2.95957861328125,0.0360650010406971,-0.05909999832510948,0.04083599895238876
1784098589692663600,2.96966357421875,0.06690999865531921,-0.07066400349140167,0.026122000068426132
1784098589702748200,2.979748046875,0.0593549981713295,-0.0725099965929985,0.03789599984884262
1784098589712833000,2.9898330078125,0.04229100048542023,-0.0696680024266243,0.049536000937223434
1784098589722918000,2.99991796875,0.04196999967098236,-0.07158999890089035,0.03722099959850311
1784098589733002800,3.010002685546875,0.05367099866271019,-0.07598300278186798,0.03696100041270256
1784098589743087400,3.02008740234375,0.03654799982905388,-0.08741900324821472,0.03430800139904022
1784098589753172200,3.030172119140625,0.04576300084590912,-0.07491400092840195,0.031700000166893005
1784098589763257000,3.040257080078125,0.057447001338005066,-0.07688900083303452,0.02908100001513958
1784098589773342000,3.050342041015625,0.045162998139858246,-0.07642599940299988,0.04084299877285957
1784098589783426800,3.0604267578125,0.061574000865221024,-0.0807029977440834,0.021435000002384186
1784098589793511700,3.07051171875,0.06130100041627884,-0.07551100105047226,0.02623699977993965
1784098589803596500,3.080596435546875,0.056136999279260635,-0.08213900029659271,0.02613300085067749
1784098589813681400,3.090681396484375,0.05575200170278549,-0.08156999945640564,0.01397200021892786
1784098589823766000,3.10076611328125,0.074522003531456,-0.0905809998512268,0.009069999679923058
1784098589833851000,3.110850830078125,0.05492300167679787,-0.07076899707317352,0.016256999224424362
1784098589843935700,3.120935791015625,0.08569999784231186,-0.07025200128555298,0.006552000064402819
1784098589854020600,3.1310205078125,0.0661970004439354,-0.0625540018081665,0.00887800008058548
1784098589864105500,3.14110546875,0.08266899734735489,-0.059735000133514404,0.00648899981752038
1784098589874190300,3.1511904296875,0.06075200065970421,-0.054398998618125916,0.0041149999015033245
1784098589884275000,3.16127490234375,0.07241199910640717,-0.061121001839637756,0.0064860000275075436
1784098589894359800,3.17135986328125,0.07924000173807144,-0.007923999801278114,-0.019828999415040016
1784098589904444700,3.181444580078125,0.06477800011634827,0.2842940092086792,-0.1125589981675148
1784098589914529500,3.191529541015625,-0.03031899966299534,-0.8323580026626587,0.23821400105953217
1784098589924614400,3.201614501953125,0.2042829990386963,0.7202550172805786,-0.17837800085544586
1784098589934699000,3.211698974609375,-0.16032899916172028,-0.524848997592926,0.10943800210952759
1784098589944784000,3.221783935546875,0.1424819976091385,-0.02979299984872341,0.05641699954867363
1784098589954868700,3.23186865234375,0.08456400036811829,-0.009963000193238258,-0.01319000031799078
1784098589964953600,3.24195361328125,-0.05680200085043907,-0.016983000561594963,-0.0848739966750145
1784098589975038500,3.25203857421875,0.04378800094127655,-0.07688000053167343,0.021013999357819557
1784098589985123300,3.262123291015625,0.03859499841928482,-0.07149499654769897,0.016068000346422195
1784098589995208000,3.2722080078125,0.014391999691724777,-0.023225000128149986,-0.0032110000029206276
1784098590005292800,3.282292724609375,0.03341599926352501,-0.07810100167989731,0.020665999501943588
1784098590015377700,3.292377685546875,0.037877000868320465,-0.058462001383304596,0.00848000030964613
1784098590025462500,3.302462646484375,0.04238700121641159,-0.050866998732089996,0.025189999490976334
1784098590035547400,3.31254736328125,0.051697999238967896,-0.06005199998617172,0.03931200131773949
1784098590045632000,3.322632080078125,0.04899200052022934,-0.05001499876379967,0.04622099921107292
1784098590055716900,3.332716796875,0.06307999789714813,-0.056791000068187714,0.038750000298023224
1784098590065801700,3.3428017578125,0.06760399788618088,-0.054005999118089676,0.06729699671268463
1784098590075886600,3.352886474609375,0.045788999646902084,-0.05361400172114372,0.04051100090146065
1784098590085971500,3.362971435546875,0.09584599733352661,-0.06765200197696686,0.0522879995405674
1784098590096056300,3.373056396484375,0.10500500351190567,-0.1268869936466217,0.018588999286293983
1784098590106141200,3.38314111328125,0.17849600315093994,0.1998019963502884,0.14277000725269318
1784098590116226000,3.39322607421875,-0.5039460062980652,-0.02749899961054325,-0.21330399811267853
1784098590126310700,3.403310546875,0.6927909851074219,-0.28430700302124023,0.2288060039281845
1784098590136395500,3.4133955078125,-0.9209309816360474,-0.012552999891340733,-0.06310500204563141
1784098590146480400,3.42348046875,1.264354944229126,-0.5395140051841736,-0.036302998661994934
1784098590156565200,3.433565185546875,-1.0329049825668335,0.3253679871559143,0.24541200697422028
1784098590166650000,3.443650146484375,0.7653120160102844,-0.21714499592781067,-0.1262660026550293
1784098590176734700,3.453734619140625,-0.27039700746536255,-0.021108999848365784,-0.017873000353574753
1784098590186819800,3.46381982421875,-0.15555599331855774,0.03646999970078468,0.044562000781297684
1784098590196904400,3.473904541015625,0.23058700561523438,-0.07706499844789505,-0.04926300048828125
1784098590206989300,3.4839892578125,-0.15540200471878052,0.03624200075864792,0.0468670018017292
1784098590217074200,3.49407421875,0.12516100704669952,-0.09848999977111816,-0.046564001590013504
1784098590227159000,3.504158935546875,-0.0022950000129640102,-0.04497800022363663,-0.007992000319063663
1784098590237244000,3.514243896484375,0.043094001710414886,0.010238000191748142,-0.01979699917137623
1784098590247328500,3.52432861328125,-0.0336030013859272,-0.011177999898791313,0.016293000429868698
1784098590257413400,3.534413330078125,0.19162799417972565,-0.04496200010180473,-0.031550001353025436
1784098590267498200,3.544498291015625,-0.09142100065946579,0.0013210000470280647,0.04280000180006027
1784098590277583000,3.5545830078125,0.1792750060558319,-0.0539730004966259,-0.03163300082087517
1784098590287668000,3.56466796875,-0.058166999369859695,-0.017438000068068504,-0.010041999630630016
1784098590297752800,3.5747529296875,0.06396699696779251,-0.04382200166583061,0.006750000175088644
1784098590307837700,3.584837646484375,0.05655800178647041,-0.06503400206565857,-0.0054410002194345
1784098590317922300,3.59492236328125,-0.10406900197267532,-0.05034799873828888,0.018414000049233437
1784098590328007200,3.605007080078125,0.19277599453926086,-0.11733800172805786,-0.0033660000190138817
1784098590338092000,3.615092041015625,-0.0809670016169548,-0.04431299865245819,0.013144999742507935
1784098590348177000,3.625177001953125,0.03873699903488159,-0.058678001165390015,0.027164999395608902
1784098590358261800,3.63526171875,0.01685200072824955,-0.06057000160217285,-0.011404000222682953
1784098590368346600,3.6453466796875,0.04767400026321411,-0.07688199728727341,0.03167299926280975
1784098590378431200,3.65543115234375,0.01859300024807453,-0.0859370008111,-0.01396000012755394
1784098590388516400,3.665516357421875,0.05897499993443489,-0.0567299984395504,0.06980600208044052
1784098590398601000,3.67560107421875,0.005987000185996294,-0.0706309974193573,0.01908399909734726
1784098590408685800,3.685685791015625,0.15662899613380432,-0.08231700211763382,0.02380800060927868
1784098590418770700,3.695770751953125,-0.006750999949872494,-0.045549001544713974,0.0357699990272522
1784098590428855600,3.70585546875,0.017097000032663345,-0.05977499857544899,0.04287000000476837
1784098590438940400,3.7159404296875,0.060068998485803604,-0.05719900131225586,0.06411600112915039
1784098590449025300,3.726025390625,0.014437000267207623,-0.04023100063204765,0.04452599957585335
1784098590459110100,3.736110107421875,0.06698799878358841,-0.05920900031924248,0.05866499990224838
1784098590469194800,3.74619482421875,0.016489999368786812,-0.046914998441934586,0.027225999161601067
1784098590479279600,3.756279541015625,-0.019507000222802162,-0.04200100153684616,0.07008899748325348
1784098590489364500,3.766364501953125,0.03071100078523159,-0.058674998581409454,0.014547999948263168
1784098590499449300,3.776449462890625,-0.017318999394774437,-0.03451700136065483,0.031125999987125397
1784098590509534200,3.7865341796875,0.0017920000245794654,-0.036851998418569565,0.02610900066792965
1784098590519619000,3.796619140625,-0.007868999615311623,-0.034331999719142914,0.02126999944448471
1784098590529704000,3.806703857421875,0.003986000083386898,-0.022187000140547752,-0.007449999917298555
1784098590539788500,3.81678857421875,-0.015270999632775784,-0.022029999643564224,0.009557000361382961
1784098590549873400,3.826873291015625,0.022971000522375107,-0.02432600036263466,-0.014241999946534634
1784098590559958300,3.836958251953125,0.006062000058591366,-0.0169220007956028,-0.011644000187516212
1784098590570043100,3.847043212890625,0.027519000694155693,-0.026359999552369118,-0.02804199978709221
1784098590580128000,3.8571279296875,0.013051999732851982,-0.009442999958992004,-0.027664000168442726
1784098590590212900,3.867212890625,0.03206200152635574,-0.014016999863088131,-0.025040000677108765
1784098590600297500,3.87729736328125,0.015168000012636185,-0.009026000276207924,-0.0200399998575449
1784098590610382300,3.88738232421875,0.03896399959921837,-0.015991000458598137,-0.01752300001680851
1784098590620467200,3.89746728515625,0.002956999931484461,-0.025425000116229057,-0.017503999173641205
1784098590630552000,3.907552001953125,0.029179999604821205,-0.030045999214053154,-0.015088999643921852
1784098590640637000,3.917636962890625,0.01703299954533577,-0.03935899958014488,-0.015173000283539295
1784098590650721800,3.9277216796875,0.012122999876737595,-0.05354300141334534,-0.00088900001719594
1784098590660806400,3.937806396484375,0.0023900000378489494,-0.04852600023150444,0.008514000102877617
1784098590670891300,3.947891357421875,0.004606000147759914,-0.05544300004839897,0.01307199988514185
1784098590680976100,3.95797607421875,0.004459999967366457,-0.060015998780727386,0.01526500005275011
1784098590691061000,3.96806103515625,-0.002940000034868717,-0.06927099823951721,0.017385000362992287
1784098590701145900,3.978145751953125,-0.003169999923557043,-0.06653500348329544,0.0315219983458519
1784098590711230700,3.988230712890625,-0.00817899964749813,-0.054235998541116714,0.03374499827623367
1784098590721315600,3.998315673828125,0.0036140000447630882,-0.058765001595020294,0.031106000766158104
1784098590731400400,4.008400390625,-0.0013269999762997031,-0.06332600116729736,0.0357539989054203
1784098590741485300,4.0184853515625,0.01042800024151802,-0.0630050003528595,0.028408000245690346
1784098590751570000,4.02856982421875,0.014977999962866306,-0.05546899884939194,0.03547399863600731
1784098590761654800,4.03865478515625,0.01475400011986494,-0.050349000841379166,0.037647001445293427
1784098590771739600,4.04873974609375,0.016999000683426857,-0.042945001274347305,0.03747100010514259
1784098590781824500,4.058824462890625,0.031171999871730804,-0.03308499976992607,0.030054999515414238
1784098590791909400,4.068909423828125,0.028589999303221703,-0.0208320003002882,0.037050001323223114
1784098590801994200,4.078994140625,0.03328799828886986,-0.02788200043141842,0.04639599844813347
1784098590812079000,4.0890791015625,0.023531999439001083,-0.015646999701857567,0.03179899975657463
1784098590822164000,4.0991640625,0.04022499918937683,-0.013156999833881855,0.029207000508904457
1784098590832248600,4.10924853515625,0.011345000006258488,-0.00814799964427948,0.02660199999809265
1784098590842333400,4.11933349609375,0.023298000916838646,-0.015302999876439571,0.014523999765515327
1784098590852418300,4.129418212890625,0.011264000087976456,-0.012814999558031559,0.01942799985408783
1784098590862503200,4.139503173828125,0.016019999980926514,-0.029527999460697174,-0.02124599926173687
1784098590872588000,4.149588134765625,0.061420999467372894,-0.012632000260055065,0.06043900176882744
1784098590882673000,4.1596728515625,0.013230999931693077,-0.06485000252723694,-0.006918000057339668
1784098590892757800,4.1697578125,0.120899997651577,-0.04798299819231033,0.024369999766349792
1784098590902842400,4.17984228515625,-0.2626360058784485,0.002985999919474125,-0.04048199951648712
1784098590912927200,4.18992724609375,0.29104599356651306,-0.12961700558662415,-0.1307239979505539
1784098590923012000,4.20001220703125,-0.2583009898662567,-0.008294000290334225,0.06646499782800674
1784098590933097000,4.210096923828125,0.20902499556541443,-0.0712290033698082,-0.029924999922513962
1784098590943181800,4.220181884765625,-0.02863599918782711,-0.005632000043988228,-0.07485000044107437
1784098590953266700,4.2302666015625,-0.08602900058031082,-0.03924800083041191,0.038036998361349106
1784098590963351600,4.2403515625,0.029028000310063362,-0.02509400062263012,-0.0654119998216629
1784098590973436400,4.2504365234375,0.0025339999701827765,-0.032033998519182205,-0.05039900168776512
1784098590983521300,4.260521240234375,-0.028658000752329826,-0.04389699921011925,0.050537001341581345
1784098590993606000,4.27060595703125,0.01666400022804737,-0.053233999758958817,0.01868700049817562
1784098591003690800,4.280690673828125,-0.009774000383913517,-0.03871700167655945,-0.024462999776005745
1784098591013775600,4.290775634765625,-0.026717999950051308,-0.04562399908900261,0.05213399976491928
1784098591023860500,4.300860595703125,-0.007619000039994717,-0.03596699982881546,0.010931000113487244
1784098591033945300,4.3109453125,-0.045990001410245895,-0.02390200085937977,0.032412998378276825
1784098591044030200,4.3210302734375,0.05221699923276901,-0.04073299840092659,0.04894300177693367
1784098591054114800,4.33111474609375,-0.09396299719810486,-0.030956000089645386,0.05339600145816803
1784098591064199700,4.34119970703125,0.11205700039863586,-0.04789699986577034,0.000534999999217689
1784098591074284500,4.351284423828125,-0.04389499872922897,-0.018674999475479126,0.046140000224113464
1784098591084369400,4.361369384765625,0.061448998749256134,-0.021069999784231186,0.0315449982881546
1784098591094454300,4.371454345703125,-0.0751739963889122,0.01746699959039688,0.043435998260974884
1784098591104539100,4.3815390625,0.032788001000881195,-0.016388000920414925,-0.01178400032222271
1784098591114624000,4.3916240234375,0.037668000906705856,-0.06201399862766266,0.06251200288534164
1784098591124708600,4.40170849609375,-0.0009850000496953726,-0.044741999357938766,-0.00021600000036414713
1784098591134793500,4.41179345703125,0.06822799891233444,-0.03723299875855446,0.01891300082206726
1784098591144878300,4.42187841796875,-0.008599000051617622,-0.010576999746263027,-0.024152999743819237
1784098591154963200,4.431963134765625,-0.034981001168489456,-0.02247999981045723,0.04534599930047989
1784098591165048000,4.442048095703125,0.0559689998626709,-0.03201400116086006,-0.014732999727129936
1784098591175133000,4.4521328125,0.007908999919891357,-0.03893499821424484,0.0020910000894218683
1784098591185217500,4.462217529296875,-0.016249999403953552,-0.03142499923706055,-0.012225000187754631
1784098591195302400,4.472302490234375,0.031543001532554626,-0.04565399885177612,-0.0024790000170469284
1784098591205387300,4.48238720703125,0.004982000216841698,-0.028558000922203064,-0.00964299961924553
1784098591215472000,4.49247216796875,-0.04296499863266945,-0.042824000120162964,-0.007127000018954277
1784098591225557000,4.502556884765625,0.014419999904930592,-0.05947500094771385,0.00725799985229969
1784098591235641900,4.512641845703125,0.14341500401496887,-0.06861700117588043,-0.0598209984600544
1784098591245726700,4.522726806640625,-0.20658400654792786,0.027824999764561653,0.0031250000465661287
1784098591255811300,4.532811279296875,0.15533800423145294,-0.07332800328731537,0.012516000308096409
1784098591265896400,4.542896484375,-0.11796899884939194,0.027778999879956245,-0.03074299916625023
1784098591275981000,4.55298095703125,0.040327999740839005,-0.05164700001478195,-0.032846998423337936
1784098591286066000,4.56306591796875,-0.022005999460816383,-0.04433500021696091,0.03416699916124344
1784098591296150500,4.573150634765625,-0.03170400112867355,-0.03697500005364418,-0.014101999811828136
1784098591306235400,4.5832353515625,0.07852300256490707,-0.056272998452186584,-0.009217999875545502
1784098591316320300,4.5933203125,-0.06547600030899048,-0.017443999648094177,0.03855200111865997
1784098591326405000,4.603405029296875,0.049605000764131546,-0.05120500177145004,0.0021669999696314335
1784098591336490000,4.613489990234375,-0.029565000906586647,-0.0006859999848529696,0.030771000310778618
1784098591346574800,4.623574951171875,0.030308999121189117,-0.03423900157213211,0.028012000024318695
1784098591356659700,4.63365966796875,-0.027226999402046204,-0.01257999986410141,0.03966499865055084
1784098591366744300,4.643744384765625,0.027821000665426254,-0.0077680000104010105,0.027360999956727028
1784098591376829200,4.6538291015625,-0.01526699960231781,-0.002991999965161085,0.029645999893546104
1784098591386914000,4.6639140625,0.01345099974423647,-0.014944000169634819,0.041492998600006104
1784098591396999000,4.6739990234375,0.0037700000684708357,-0.0028200000524520874,0.03889999911189079
1784098591407083800,4.684083740234375,0.013296999968588352,-0.0027469999622553587,0.036322999745607376
1784098591417168600,4.694168701171875,0.022864999249577522,-0.005129000172019005,0.03384999930858612
1784098591427253200,4.704253173828125,0.006012000143527985,-0.00020300000323913991,0.05048799887299538
1784098591437338000,4.714338134765625,0.025178000330924988,-0.007406000047922134,0.026290999725461006
1784098591447423000,4.724423095703125,0.025073999539017677,-0.009643999859690666,0.023793000727891922
1784098591457507800,4.7345078125,0.017839999869465828,-0.021539999172091484,0.014128999784588814
1784098591467592700,4.7445927734375,0.022438999265432358,-0.028439000248908997,0.009314999915659428
1784098591477677600,4.754677490234375,0.015096000395715237,-0.03298899903893471,0.004530999809503555
1784098591487762400,4.764762451171875,0.019725000485777855,-0.02796199917793274,-0.00016399999731220305
1784098591497847300,4.774847412109375,0.014785000123083591,-0.04209800064563751,-0.004887999966740608
1784098591507932000,4.784931884765625,0.01705400086939335,-0.0538799986243248,-0.007187999784946442
1784098591518016800,4.795016845703125,0.01683099940419197,-0.04396900162100792,-0.018962999805808067
1784098591528101600,4.8051015625,0.03339700028300285,-0.050859998911619186,-0.01638600043952465
1784098591538186500,4.8151865234375,-0.005096000153571367,-0.04579100012779236,-0.01613200083374977
1784098591548271400,4.825271240234375,0.021083999425172806,-0.0527379997074604,-0.023148000240325928
1784098591558356200,4.835356201171875,0.01128000020980835,-0.0452129989862442,-0.03245700150728226
1784098591568440800,4.84544091796875,0.01588200032711029,-0.040143001824617386,-0.029735999181866646
1784098591578525700,4.855525634765625,0.008519000373780727,-0.037477001547813416,-0.015177999623119831
1784098591588610600,4.865610595703125,0.02996799908578396,-0.03732699900865555,-0.01986600086092949
1784098591598695400,4.8756953125,0.008218999952077866,-0.03223999962210655,-0.012640999630093575
1784098591608780300,4.8857802734375,0.029742000624537468,-0.025018999353051186,-0.0030670000705868006
1784098591618865200,4.895865234375,0.03681899979710579,-0.02486100047826767,-0.005524999927729368
1784098591628950000,4.905949951171875,0.02472900040447712,-0.02468400076031685,0.006308000069111586
1784098591639035000,4.916034912109375,0.03660399839282036,-0.01975500024855137,0.013279999606311321
1784098591649119700,4.92611962890625,0.03416400030255318,-0.014901000075042248,0.013026000000536442
1784098591659204600,4.93620458984375,0.024443000555038452,-0.009898999705910683,0.010466000065207481
1784098591669289500,4.94628955078125,0.04360499978065491,-0.0027290000580251217,0.02713399939239025
1784098591679374300,4.956374267578125,0.03150700032711029,-0.007331000175327063,0.029273999854922295
1784098591689459000,4.966458984375,0.029113000258803368,-0.009727000258862972,0.03145899996161461
1784098591699543800,4.976543701171875,0.04336100071668625,-0.01433899998664856,0.03611199930310249
1784098591709628700,4.986628662109375,0.0169220007956028,-0.007007000036537647,0.03585899993777275
1784098591719713500,4.996713623046875,0.03359600156545639,-0.009273000061511993,0.04287799820303917
1784098591729798400,5.00679833984375,0.021556999534368515,-0.006779000163078308,0.030700000002980232
1784098591739883300,5.01688330078125,0.03828100115060806,-0.011513999663293362,0.018597999587655067
1784098591749968100,5.026968017578125,0.026169000193476677,-0.01848600059747696,0.030455999076366425
1784098591760053000,5.037052978515625,0.03560600057244301,-0.015886999666690826,0.025451000779867172
1784098591770137600,5.0471376953125,0.023486999794840813,-0.015664000064134598,0.02062300033867359
1784098591780222500,5.057222412109375,0.03293899819254875,-0.015478000044822693,0.020555000752210617
1784098591790307300,5.067307373046875,0.01609399914741516,-0.017746999859809875,0.015699999406933784
1784098591800392200,5.07739208984375,0.0399789996445179,-0.024841999635100365,0.013269999995827675
1784098591810477000,5.08747705078125,0.032614000141620636,-0.029356999322772026,0.0013650000328198075
1784098591820562000,5.09756201171875,0.020519999787211418,-0.02917099930346012,-0.0009740000241436064
1784098591830646800,5.107646728515625,0.03233399987220764,-0.02653999999165535,-0.000846999988425523
1784098591840731600,5.117731689453125,0.022701000794768333,-0.038426999002695084,-0.003172999946400523
1784098591850816300,5.127816162109375,0.0392719991505146,-0.042931001633405685,-0.005483999848365784
1784098591860901000,5.137901123046875,0.019883999601006508,-0.03779299929738045,-0.015050999820232391
1784098591870986000,5.147986083984375,0.04609699919819832,-0.040001001209020615,-0.007710999809205532
1784098591881070800,5.15807080078125,0.019579999148845673,-0.03494099900126457,-0.019571000710129738
1784098591891155700,5.16815576171875,0.0433490015566349,-0.032287999987602234,-0.021865999326109886
1784098591901240600,5.178240478515625,0.026496000587940216,-0.039329998195171356,-0.009840999729931355
1784098591911325400,5.188325439453125,0.035934001207351685,-0.031936001032590866,-0.012198000214993954
1784098591921410300,5.198410400390625,0.038130998611450195,-0.031644001603126526,-0.019386999309062958
1784098591931495200,5.2084951171875,0.0379909984767437,-0.024250000715255737,-0.012165999971330166
1784098591941580000,5.218580078125,0.025844000279903412,-0.021592000499367714,-0.01701899990439415
1784098591951665000,5.228664794921875,0.049699001014232635,-0.011882999911904335,-0.002572000026702881
1784098591961749500,5.23874951171875,0.020803000777959824,-0.002061000093817711,-0.005179999861866236
1784098591971834400,5.24883447265625,0.049511998891830444,-0.006816999986767769,0.004403000231832266
1784098591981919200,5.258919189453125,0.03499799966812134,0.005375000182539225,0.0018100000452250242
1784098591992004000,5.269004150390625,0.034970998764038086,0.010204000398516655,0.016138000413775444
1784098592002089000,5.2790888671875,0.03250399976968765,0.0007329999934881926,0.018404999747872353
1784098592012173800,5.289173828125,0.037257999181747437,-0.0016060000052675605,0.02059900015592575
1784098592022258400,5.299258544921875,0.044328998774290085,0.010526999831199646,0.0275689996778965
1784098592032343600,5.309343505859375,0.029874000698328018,0.0010819999733939767,0.02506300061941147
1784098592042428200,5.31942822265625,0.02745000086724758,-0.006054999772459269,0.0344570018351078
1784098592052513000,5.329512939453125,0.02016500011086464,-0.0011109999613836408,0.02711999975144863
1784098592062598000,5.339597900390625,0.024934999644756317,-0.008268999867141247,0.03652999922633171
1784098592072682800,5.349682861328125,0.005733000114560127,-0.022563999518752098,0.03142800182104111
1784098592082767600,5.359767578125,0.022379999980330467,-0.02239999920129776,0.028957000002264977
1784098592092852700,5.369852783203125,-0.001643999945372343,-0.024669000878930092,0.026443000882864
1784098592102937600,5.3799375,0.024589000269770622,-0.03409399837255478,0.021550999954342842
1784098592113022200,5.390022216796875,0.033987000584602356,-0.03382299840450287,0.01668900065124035
1784098592123107000,5.400107177734375,-0.011700999923050404,-0.028738999739289284,-0.00011200000153621659
1784098592133192000,5.41019189453125,0.04087800160050392,-0.03578000143170357,-0.0023539999965578318
1784098592143276800,5.42027685546875,-0.002374999923631549,-0.03793799877166748,-0.002188999904319644
1784098592153361700,5.430361572265625,0.011850999668240547,-0.04012199863791466,-0.00938200019299984
1784098592163446500,5.440446533203125,0.05010199919342995,-0.035248998552560806,-0.01644200086593628
1784098592173531400,5.450531494140625,0.011621999554336071,-0.034988000988960266,-0.009151999838650227
1784098592183616300,5.4606162109375,0.030678000301122665,-0.027657000347971916,-0.018519999459385872
1784098592193701000,5.470701171875,0.023381000384688377,-0.02748499996960163,-0.023128999397158623
1784098592203786000,5.480785888671875,0.032857999205589294,-0.015363000333309174,-0.008554999716579914
1784098592213870800,5.490870849609375,0.03038099966943264,-0.015236999839544296,-0.020409999415278435
1784098592223955700,5.500955810546875,0.03514999896287918,-0.012814000248908997,-0.015430999919772148
1784098592234040600,5.51104052734375,0.03506999835371971,-0.005510999821126461,-0.022630000486969948
1784098592244125400,5.52112548828125,0.02788900025188923,-0.010298999957740307,-0.010541999712586403
1784098592254210300,5.531210205078125,0.03501199930906296,-0.005421000067144632,-0.010499999858438969
1784098592264295200,5.541295166015625,0.025377999991178513,0.0018479999853298068,-0.005671999882906675
1784098592274380000,5.551380126953125,0.025418000295758247,0.001787999994121492,0.0015200000489130616
1784098592284465000,5.56146484375,0.015762999653816223,0.0019030000548809767,0.003792000003159046
1784098592294549800,5.5715498046875,0.025340000167489052,0.00190100003965199,0.0036269999109208584
1784098592304634600,5.581634521484375,0.022926999256014824,0.0067159999161958694,0.005826999898999929
1784098592314719500,5.591719482421875,0.025320999324321747,-0.005253999959677458,0.010583000257611275
1784098592324804400,5.601804443359375,0.008464000187814236,-0.00031900001340545714,0.02006799913942814
1784098592334889000,5.611888916015625,0.020441999658942223,-0.009909999556839466,0.012675000354647636
1784098592344973800,5.621973876953125,0.006031999830156565,-0.002662000013515353,0.02445399947464466
1784098592355058700,5.63205859375,0.01789199933409691,-0.009677999652922153,0.029005000367760658
1784098592365143600,5.6421435546875,-0.001415999955497682,-0.01662999950349331,0.0288270004093647
1784098592375228400,5.652228515625,0.010475999675691128,-0.01651100069284439,0.028707999736070633
1784098592385313300,5.662313232421875,0.0031900000758469105,-0.01157199963927269,0.028531000018119812
1784098592395398100,5.672398193359375,0.007904999889433384,-0.021040000021457672,0.03550900146365166
1784098592405483000,5.68248291015625,0.007853000424802303,-0.020963000133633614,0.025770999491214752
1784098592415568000,5.69256787109375,0.002954999916255474,-0.01601099967956543,0.03285500034689903
1784098592425652700,5.70265283203125,0.012446999549865723,-0.02545900084078312,0.023134000599384308
1784098592435737600,5.712737548828125,0.014766000211238861,-0.027744000777602196,0.013473999686539173
1784098592445822500,5.722822509765625,0.009952000342309475,-0.03009999915957451,0.0014809999847784638
1784098592455907300,5.7329072265625,0.014601999893784523,-0.02510100044310093,-0.0032530000898987055
1784098592465992200,5.7429921875,0.02165200002491474,-0.03447600081562996,0.008801000192761421
1784098592476077000,5.7530771484375,0.016745999455451965,-0.024723999202251434,-0.0031620000954717398
1784098592486162000,5.763161865234375,0.026242999359965324,-0.031787000596523285,-0.005472999997437
1784098592496246800,5.773246826171875,0.018943000584840775,-0.017243999987840652,-0.019682999700307846
1784098592506331600,5.78333154296875,0.02600499987602234,-0.019456999376416206,-0.012254999950528145
1784098592516416300,5.793416259765625,0.009165000170469284,-0.014545000158250332,-0.021692000329494476
1784098592526501000,5.803501220703125,0.02822599932551384,-0.007222000043839216,-0.016704000532627106
1784098592536586200,5.813586181640625,0.01854199916124344,0.0001230000052601099,-0.02850699983537197
1784098592546671000,5.823671142578125,0.013744000345468521,0.00013899999612476677,-0.01874700002372265
1784098592556756000,5.833755859375,0.013741999864578247,0.00014000000373926014,-0.016259999945759773
1784098592566840800,5.8438408203125,0.008952000178396702,0.0001429999974789098,-0.013787999749183655
1784098592576925700,5.85392578125,0.01608699932694435,0.005007000174373388,-0.01133199967443943
1784098592587010600,5.864010498046875,0.008852999657392502,0.009868999943137169,-0.009037000127136707
1784098592597095400,5.874095458984375,-0.005534000229090452,0.005111999809741974,-0.006670000031590462
1784098592607180300,5.88418017578125,-0.005481999833136797,0.002641000086441636,0.0028649999294430017
1784098592617265200,5.89426513671875,-0.010282999835908413,0.007453000172972679,0.007699000183492899
1784098592627350000,5.90435009765625,-0.007822000421583652,-0.0046179997734725475,0.014808000065386295
1784098592637435000,5.914434814453125,-0.0006730000022798777,-0.009359999559819698,0.012295999564230442
1784098592647519700,5.924519775390625,-0.015097999945282936,-0.004482000134885311,0.01952200010418892
1784098592657604600,5.9346044921875,-0.0007510000141337514,-0.01882299967110157,0.016922999173402786
1784098592667689500,5.944689453125,-0.01993199996650219,-0.009204000234603882,0.028761999681591988
1784098592677774000,5.954774169921875,-0.0007999999797903001,-0.021144000813364983,0.028586000204086304
1784098592687859200,5.964859130859375,-0.005741000175476074,-0.018523000180721283,0.02598699927330017
1784098592697944000,5.974944091796875,0.0037579999770969152,-0.02319899946451187,0.020951999351382256
1784098592708029000,5.98502880859375,-0.0011370000429451466,-0.02543099969625473,0.020795000717043877
1784098592718113800,5.99511376953125,0.005940999835729599,-0.03245500102639198,0.01833299919962883
1784098592728198700,6.00519873046875,0.0034050000831484795,-0.02267099916934967,0.01579900085926056
1784098592738283500,6.015283447265625,0.012934000231325626,-0.02499300055205822,0.018126999959349632
1784098592748368400,6.025368408203125,0.005621999967843294,-0.017613999545574188,0.015682000666856766
1784098592758453200,6.035453369140625,0.01282500009983778,-0.017647000029683113,0.008464000187814236
1784098592768538000,6.0455380859375,0.015169000253081322,-0.015177000313997269,0.005981000140309334
1784098592778623000,6.055623046875,0.017513999715447426,-0.012710999697446823,0.0012069999938830733
1784098592788707800,6.065707763671875,0.017469000071287155,-0.017431000247597694,-0.010718000121414661
1784098592798792700,6.075792724609375,0.012622999958693981,-0.012552999891340733,-0.005810000002384186
1784098592808877600,6.085877685546875,0.007741000037640333,-0.014805999584496021,-0.005721000023186207
1784098592818962400,6.09596240234375,0.0029200001154094934,-0.012364000082015991,-0.0008440000237897038
1784098592829047300,6.10604736328125,0.014817999675869942,-0.012250999920070171,-0.017545999959111214
1784098592839132200,6.116132080078125,-0.006767999846488237,-0.00979899987578392,-0.012594999745488167
1784098592849217000,6.126217041015625,0.007664999924600124,-0.005113000050187111,-0.017309000715613365
1784098592859302000,6.136302001953125,-0.006703000050038099,-0.002710999920964241,-0.007571000140160322
1784098592869386800,6.14638671875,0.002902999985963106,-0.0027580000460147858,-0.014798999764025211
1784098592879471600,6.1564716796875,-0.021026000380516052,-0.007565000094473362,-0.010010999627411366
1784098592889556500,6.166556396484375,-0.00661499984562397,-0.005235999822616577,-0.007588000036776066
1784098592899641300,6.176641357421875,-0.023351000621914864,0.004304999951273203,-0.009968999773263931
1784098592909726200,6.186726318359375,-0.008963000029325485,-0.0005200000014156103,-0.0028170000296086073
1784098592919811000,6.19681103515625,-0.018497999757528305,0.0018119999440386891,-0.00043899999582208693
1784098592929896000,6.20689599609375,-0.013644999824464321,0.0017109999898821115,-0.0005300000193528831
1784098592939980800,6.216980712890625,-0.016040999442338943,-0.000678999989759177,-0.0030139998998492956
1784098592950065700,6.227065673828125,-0.013590999878942966,-0.003155000042170286,0.008940000087022781
1784098592960150500,6.237150634765625,-0.016001999378204346,-0.005526000168174505,0.011242999695241451
1784098592970235400,6.2472353515625,-0.004050000105053186,-0.007892999798059464,0.013531000353395939
1784098592980320300,6.2573203125,-0.0017059999518096447,-0.015003000386059284,0.013352000154554844
1784098592990405000,6.267405029296875,-0.00890200026333332,-0.007796999998390675,0.013233000412583351
1784098593000490000,6.277489990234375,0.005421999841928482,-0.010134000331163406,0.015509000048041344
1784098593010574800,6.287574951171875,-0.006562999915331602,-0.022081999108195305,0.024953000247478485
1784098593020660000,6.297659912109375,0.0029269999358803034,-0.0243500005453825,0.020059000700712204
1784098593030744800,6.307744873046875,0.0028170000296086073,-0.017002999782562256,0.019897999241948128
1784098593040829700,6.31782958984375,0.007575000170618296,-0.019354000687599182,0.012555000372231007
1784098593050914300,6.327914306640625,0.0026839999482035637,-0.021592000499367714,0.014921999536454678
1784098593060999400,6.33799951171875,0.012217000126838684,-0.02392200008034706,0.010091999545693398
1784098593071084000,6.348083984375,-0.0022720000706613064,-0.011761999689042568,0.012474999763071537
1784098593081169200,6.358169189453125,0.012028000317513943,-0.018850000575184822,0.005179000087082386
1784098593091254000,6.36825390625,-0.004782000090926886,-0.013983000069856644,0.007592999842017889
1784098593101339000,6.3783388671875,0.004788000136613846,-0.006792000029236078,0.00035700001171790063
1784098593111423700,6.388423828125,0.004784000106155872,-0.009181000292301178,-0.0019859999883919954
1784098593121508600,6.398508544921875,-0.000014000000192027073,-0.006771000102162361,-0.004315999802201986
1784098593131593500,6.408593505859375,-0.000009000000318337698,-0.004385000094771385,-0.00902399979531765
1784098593141678300,6.41867822265625,-0.002389000030234456,-0.009192000143229961,-0.0017330000409856439
1784098593151763200,6.42876318359375,-0.004780999850481749,-0.002013999968767166,-0.0064570000395178795
1784098593161848000,6.43884814453125,-0.009538000449538231,0.007519999984651804,-0.016029000282287598
1784098593171933000,6.448932861328125,-0.01432000007480383,0.0075079998932778835,-0.018415000289678574
1784098593182017500,6.459017578125,-0.02388099953532219,0.0003009999927598983,-0.013546000234782696
1784098593192102700,6.4691025390625,-0.021415000781416893,0.004980999976396561,-0.013553000055253506
1784098593202187500,6.4791875,-0.016544999554753304,-0.00471699982881546,-0.008685000240802765
1784098593212272400,6.4892724609375,-0.016499999910593033,-0.0023880000226199627,-0.0038759999442845583
1784098593222357200,6.499357177734375,-0.018843999132514,-0.00007100000220816582,-0.0063390000723302364
1784098593232442000,6.509442138671875,-0.016448000445961952,-0.00007500000356230885,-0.0015450000064447522
1784098593242527000,6.51952685546875,-0.02841999940574169,-0.002466999925673008,-0.003965000156313181
1784098593252611800,6.52961181640625,-0.009192000143229961,-0.01694200001657009,0.003206999972462654
1784098593262696700,6.53969677734375,-0.021229000762104988,-0.01205500029027462,0.005547000095248222
1784098593272781600,6.549781494140625,-0.0068339998833835125,-0.004920000210404396,0.012690000236034393
1784098593282866200,6.5598662109375,-0.021234000101685524,-0.0072639998979866505,0.007728000171482563
1784098593292951300,6.569951416015625,0.002693000016734004,-0.012032000347971916,0.0027979998849332333
1784098593303036000,6.580035888671875,-0.009348999708890915,-0.004736999981105328,0.01232299953699112
1784098593313120800,6.590120849609375,0.002589999930933118,-0.01666400022804737,0.016999000683426857
1784098593323205600,6.60020556640625,0.004896999802440405,-0.011745999567210674,0.009615999646484852
1784098593333290500,6.61029052734375,0.007271000184118748,-0.014112000353634357,0.01670300029218197
1784098593343375600,6.620375732421875,0.009634999558329582,-0.016460999846458435,0.014109999872744083
1784098593353460500,6.63046044921875,0.014380999840795994,-0.023581000044941902,0.014132999815046787
1784098593363545000,6.640545166015625,0.016704000532627106,-0.018685000017285347,0.014096000231802464
1784098593373630200,6.650630126953125,0.0046720001846551895,-0.01859300024807453,0.021243000403046608
1784098593383715000,6.660715087890625,0.021333999931812286,-0.016054000705480576,0.009103000164031982
1784098593393800000,6.670800048828125,-0.0026710000820457935,-0.015957999974489212,0.0091559998691082
1784098593403884800,6.680884765625,0.006887999828904867,-0.01593399979174137,0.01154599990695715
1784098593413969700,6.6909697265625,-0.007511000148952007,-0.011094000190496445,0.004342999774962664
1784098593424054500,6.701054443359375,-0.00031999999191612005,-0.01589200086891651,0.004368999972939491
1784098593434139400,6.711139404296875,-0.01231400016695261,-0.0014959999825805426,0.00430699996650219
1784098593444224300,6.721224365234375,0.021247999742627144,-0.013532999902963638,-0.0028490000404417515
1784098593454309000,6.73130908203125,-0.03866099938750267,0.005702999886125326,0.004403000231832266
1784098593464394000,6.74139404296875,-0.00023700000019744039,0.0007409999961964786,-0.010022999718785286
1784098593474478800,6.751478759765625,-0.028999000787734985,0.0007869999972172081,0.009157000109553337
1784098593484563700,6.761563720703125,-0.02418600022792816,0.005537999793887138,-0.017270000651478767
1784098593494648600,6.771648681640625,0.07645799964666367,0.0006179999909363687,-0.024289999157190323
1784098593504733400,6.7817333984375,-0.08891899883747101,0.02243500016629696,0.004788000136613846
1784098593514818300,6.791818359375,0.03327399864792824,-0.004033000208437443,-0.009639999829232693
1784098593524903200,6.801903076171875,0.021252000704407692,0.005619999952614307,-0.009526999667286873
1784098593534988000,6.811988037109375,-0.021960999816656113,0.005795000120997429,-0.009503000415861607
1784098593545073000,6.822072998046875,0.03552500158548355,-0.0038189999759197235,0.00018600000475998968
1784098593555157800,6.83215771484375,0.03307700157165527,-0.008523999713361263,-0.00942699983716011
1784098593565242600,6.84224267578125,-0.01253500021994114,-0.00834100041538477,0.007296999916434288
1784098593575327500,6.852327392578125,0.030525999143719673,-0.02026199921965599,-0.009600000455975533
1784098593585412600,6.86241259765625,0.03277000039815903,-0.024824000895023346,0.00008900000102585182
1784098593595497500,6.87249755859375,-0.010493000037968159,-0.02456899918615818,0.000052999999752501026
1784098593605582300,6.882582275390625,0.025333000347018242,-0.031624000519514084,-0.002374999923631549
1784098593615667000,6.8926669921875,0.008457999676465988,-0.0338440015912056,-0.0071829999797046185
1784098593625751800,6.902751708984375,-0.003601999953389168,-0.033709000796079636,0.007220999803394079
1784098593635837000,6.9128369140625,0.015483999624848366,-0.0431860014796257,-0.002492999890819192
1784098593645921800,6.922921875,0.0009879999561235309,-0.03580699861049652,-0.004877000115811825
1784098593656006700,6.933006591796875,-0.018245000392198563,-0.026108000427484512,-0.0025450000539422035
1784098593666091500,6.943091552734375,-0.0015030000358819962,-0.021296000108122826,-0.009744999930262566
1784098593676176400,6.95317626953125,-0.006326000206172466,-0.023638000711798668,-0.00980599969625473
1784098593686261200,6.96326123046875,-0.023118000477552414,-0.01640699990093708,-0.012230999767780304
1784098593696346000,6.97334619140625,-0.001547000021673739,-0.016439000144600868,-0.014581999741494656
1784098593706431000,6.983430908203125,-0.020664000883698463,-0.014103000052273273,-0.009794999845325947
1784098593716515800,6.993515869140625,-0.020639000460505486,-0.006955999881029129,-0.01221999991685152
1784098593726600700,7.0036005859375,-0.013412999920547009,0.004947000183165073,-0.01232299953699112
1784098593736685600,7.013685546875,-0.006107000168412924,0.011943000368773937,-0.007548999972641468
1784098593746770400,7.0237705078125,-0.010824000462889671,0.011837000027298927,-0.0028069999534636736
1784098593756855300,7.033855224609375,-0.008351000025868416,0.01650400087237358,0.001816999982111156
1784098593766940200,7.043940185546875,-0.008204000070691109,0.02585900016129017,0.013741999864578247
1784098593777025000,7.05402490234375,-0.0056940000504255295,0.028078999370336533,0.01356200035661459
1784098593787110000,7.06410986328125,0.004056000150740147,0.0230260007083416,0.027660999447107315
1784098593797194800,7.07419482421875,0.0017450000159442425,0.0181099995970726,0.04175800085067749
1784098593807279600,7.084279541015625,-0.007815999910235405,0.02766299992799759,0.0390079990029335
1784098593817364500,7.094364501953125,-0.0005719999899156392,0.025174999609589577,0.03148600086569786
1784098593827449300,7.104449462890625,-0.0029269999358803034,0.0011709999525919557,0.04331099987030029
1784098593837534200,7.1145341796875,-0.012528999708592892,0.010784000158309937,0.04533899948000908
1784098593847619000,7.124619140625,0.006645000074058771,-0.010797999799251556,0.030681999400258064
1784098593857704000,7.134703857421875,-0.010191000066697598,-0.015469999983906746,0.03287699818611145
1784098593867788800,7.144788818359375,0.008901000022888184,-0.029746999964118004,0.03751099854707718
1784098593877873700,7.154873779296875,0.00636899983510375,-0.024752000346779823,0.018261000514030457
1784098593887958500,7.16495849609375,0.01104000024497509,-0.026969000697135925,0.020679999142885208
1784098593898043400,7.17504345703125,0.015636999160051346,-0.03386399894952774,0.01117200031876564
1784098593908128300,7.185128173828125,0.01541799958795309,-0.031137999147176743,0.008906000293791294
1784098593918213000,7.195213134765625,0.022505000233650208,-0.040571000427007675,-0.000526999996509403
1784098593928298000,7.205298095703125,0.0007619999814778566,-0.02830599993467331,0.01164500042796135
1784098593938382800,7.2153828125,0.0270409993827343,-0.03061099909245968,-0.019499000161886215
1784098593948467700,7.2254677734375,0.007770999800413847,-0.01846499927341938,-0.011907000094652176
1784098593958552600,7.235552490234375,-0.006692999973893166,-0.013522000052034855,-0.01648000068962574
1784098593968637400,7.245637451171875,0.007670000195503235,-0.018308000639081,-0.01387100014835596
1784098593978722300,7.255722412109375,-0.016256000846624374,-0.0111480001360178,-0.03522000089287758
1784098593988807200,7.26580712890625,-0.006653000134974718,0.0007880000048317015,-0.0396450012922287
1784098593998892000,7.27589208984375,-0.03294999897480011,-0.001664999988861382,-0.046553999185562134
1784098594008977000,7.285976806640625,-0.02334499917924404,-0.006490999832749367,-0.048687998205423355
1784098594019061800,7.296061767578125,-0.035204000771045685,-0.004261000081896782,-0.057902999222278595
1784098594029146600,7.306146728515625,-0.030334999784827232,0.0027989998925477266,-0.0743890032172203
1784098594039231700,7.316231689453125,-0.04706000164151192,0.002749999985098839,-0.05964599922299385
1784098594049316600,7.326316650390625,-0.0374159999191761,0.002650999929755926,-0.059418998658657074
1784098594059401500,7.3364013671875,-0.030184999108314514,0.0049749999307096004,-0.059223998337984085
1784098594069486300,7.346486328125,-0.046904999762773514,0.009704000316560268,-0.05911700055003166
1784098594079571200,7.3565712890625,-0.010906999930739403,0.009575000032782555,-0.03752199932932854
1784098594089656000,7.366656005859375,-0.025314999744296074,0.016821999102830887,-0.042312998324632645
1784098594099741000,7.376740966796875,-0.018067000433802605,0.01193699985742569,-0.020824000239372253
1784098594109825800,7.38682568359375,0.008245999924838543,0.004786000121384859,0.0148930000141263
1784098594119910700,7.39691064453125,-0.013338999822735786,-0.004736999981105328,0.01686600036919117
1784098594129995500,7.40699560546875,0.003338000038638711,-0.002222999930381775,0.030856000259518623
1784098594140080400,7.417080322265625,0.020051000639796257,-0.01891399919986725,0.0663359984755516
1784098594150165200,7.427165283203125,0.00795000046491623,-0.02112000063061714,0.089649997651577
1784098594160250000,7.43725,0.022204000502824783,-0.023351000621914864,0.10563399642705917
1784098594170335000,7.4473349609375,-0.01385399978607893,-0.003982999827712774,0.02110699936747551
1784098594180419800,7.457419921875,0.014914000406861305,-0.032774001359939575,0.018487000837922096
1784098594190504700,7.467504638671875,0.026724999770522118,-0.03014400042593479,0.14262999594211578
1784098594200589600,7.477589599609375,0.009789000265300274,-0.02509699948132038,0.16554999351501465
1784098594210674400,7.48767431640625,-0.00470300018787384,-0.0129399998113513,0.04981200024485588
1784098594220759300,7.49775927734375,0.014329999685287476,-0.017548000440001488,0.06625200062990189
1784098594230844200,7.50784423828125,0.004641000181436539,-0.022167999297380447,0.11403399705886841
1784098594240929000,7.517928955078125,0.0261400006711483,-0.024491000920534134,0.05386300012469292
1784098594251014100,7.52801416015625,0.011679000221192837,-0.014770000241696835,0.015589999966323376
1784098594261099000,7.53809912109375,0.004341000225394964,-0.009744999930262566,0.044596001505851746
1784098594271184000,7.548183837890625,-0.017273999750614166,-0.012033999897539616,0.0161920003592968
1784098594281268500,7.5582685546875,0.023448999971151352,-0.01685599982738495,-0.012206999585032463
1784098594291353600,7.568353515625,-0.014925000257790089,-0.014356999658048153,-0.009362000040709972
1784098594301438500,7.5784384765625,0.013818000443279743,-0.009585999883711338,-0.023293999955058098
1784098594311523300,7.5885234375,-0.005419000051915646,-0.00945299956947565,-0.039590999484062195
1784098594321608200,7.598608154296875,-0.01498700026422739,0.0025059999898076057,-0.06769700348377228
1784098594331693000,7.608693115234375,-0.017260000109672546,0.004722000099718571,-0.09816700220108032
1784098594341778000,7.61877783203125,-0.021973000839352608,-0.007354999892413616,-0.07349400222301483
1784098594351862800,7.62886279296875,-0.012407000176608562,-0.007335999980568886,-0.09916599839925766
1784098594361947600,7.63894775390625,-0.024348000064492226,-0.009769000113010406,-0.09857500344514847
1784098594372032300,7.6490322265625,-0.05782200023531914,0.004532000049948692,-0.05728499963879585
1784098594382117000,7.6591171875,0.007031000219285488,-0.012539000250399113,-0.08805099874734879
1784098594392202200,7.6692021484375,-0.033750999718904495,-0.01001800037920475,-0.12358999997377396
1784098594402286800,7.679286865234375,-0.05979200080037117,0.01348199974745512,-0.06795100122690201
1784098594412372000,7.6893720703125,-0.026265999302268028,0.01107999961823225,-0.012546000070869923
1784098594422456800,7.699456787109375,-0.03807000070810318,-0.008322999812662601,-0.06514400243759155
1784098594432541400,7.70954150390625,-0.05481500178575516,0.032354000955820084,-0.05799200013279915
1784098594442626600,7.71962646484375,-0.06182999908924103,0.01773899979889393,0.009289000183343887
1784098594452711200,7.729711181640625,-0.07845199853181839,0.041471999138593674,-0.012583999894559383
1784098594462796300,7.73979638671875,-0.018358999863266945,0.01477499958127737,-0.020042000338435173
1784098594472881200,7.749881103515625,-0.07098600268363953,0.03864800184965134,0.056341998279094696
1784098594482966000,7.759966064453125,-0.03964700177311897,0.014378000050783157,0.046170998364686966
1784098594493051000,7.77005078125,-0.02759299986064434,0.04058400169014931,0.033640000969171524
1784098594503135700,7.7801357421875,-0.05624400079250336,0.02849300019443035,0.08104400336742401
1784098594513220600,7.790220703125,-0.015328999608755112,0.02577199973165989,0.0875919982790947
1784098594523305500,7.800305419921875,-0.032079000025987625,0.011385000310838223,0.07497499883174896
1784098594533390300,7.810390380859375,-0.003289999905973673,-0.000678999989759177,0.09113900363445282
1784098594543475200,7.82047509765625,-0.012896999716758728,0.0017579999985173345,0.0881349965929985
1784098594553560000,7.83056005859375,0.008586999960243702,-0.031668998301029205,0.0780550017952919
1784098594563645000,7.84064501953125,0.025143999606370926,-0.017002999782562256,0.07282699644565582
1784098594573729800,7.850729736328125,0.017771000042557716,-0.04544899985194206,0.07011400163173676
1784098594583814700,7.860814697265625,0.041453998535871506,-0.05703200027346611,0.03643900156021118
1784098594593899500,7.8708994140625,0.05553999915719032,-0.05661199986934662,0.0411669984459877
1784098594603984400,7.880984375,0.0432640016078949,-0.0824889987707138,0.007732999976724386
1784098594614069200,7.8910693359375,0.06445600092411041,-0.0508279986679554,0.012671999633312225
1784098594624154000,7.901154052734375,0.059363000094890594,-0.08388900011777878,-0.023093000054359436
1784098594634239000,7.911239013671875,0.004023000132292509,-0.06671400368213654,-0.0226610004901886
1784098594644323800,7.92132373046875,0.04694100096821785,-0.07123400270938873,-0.0342009998857975
1784098594654408700,7.93140869140625,-0.0012120000319555402,-0.056457001715898514,-0.048151999711990356
1784098594664493600,7.94149365234375,-0.0012890000361949205,-0.04436499997973442,-0.061983998864889145
1784098594674578700,7.95157861328125,-0.04436799883842468,-0.032416000962257385,-0.05660500004887581
1784098594684663300,7.961663330078125,-0.04668699949979782,-0.02534399926662445,-0.06097999960184097
1784098594694748200,7.971748046875,-0.06807500123977661,-0.006426000036299229,-0.0773869976401329
1784098594704833300,7.981833251953125,-0.06308899819850922,0.0028550000861287117,-0.07453499734401703
1784098594714918100,7.991918212890625,-0.08681599795818329,0.004929000046104193,-0.07184799760580063
1784098594725002800,8.002002685546875,-0.07691299915313721,0.0212009996175766,-0.06441699713468552
1784098594735087600,8.012087646484375,-0.08380100131034851,0.027939999476075172,-0.04748699814081192
1784098594745172500,8.02217236328125,-0.07150200009346008,0.04181300103664398,-0.04257800057530403
1784098594755257300,8.03225732421875,-0.06637100130319595,0.046084001660346985,-0.04257600009441376
1784098594765342200,8.04234228515625,-0.058841001242399216,0.05035199970006943,-0.02812100015580654
1784098594775427000,8.052427001953125,-0.0418579988181591,0.0548040010035038,-0.0017719999887049198
1784098594785512000,8.062511962890625,-0.036809999495744705,0.059199001640081406,0.007590999826788902
1784098594795596800,8.0725966796875,-0.02218100056052208,0.06598299741744995,0.03601999953389168
1784098594805681700,8.082681640625,-0.007619000039994717,0.051318999379873276,0.04275200143456459
1784098594815766500,8.0927666015625,0.006812000181525946,0.05600300058722496,0.06386499851942062
1784098594825851400,8.102851318359376,0.0020759999752044678,0.0487390011548996,0.08011499792337418
1784098594835936300,8.112936279296875,0.014085999689996243,0.03670300170779228,0.08662799745798111
1784098594846021000,8.123021240234374,0.002096999902278185,0.027148999273777008,0.09079299867153168
1784098594856106000,8.13310595703125,0.023622000589966774,0.008023999631404877,0.09014400094747543
1784098594866190800,8.14319091796875,0.013926999643445015,-0.010951999574899673,0.08716200292110443
1784098594876275700,8.153275634765626,0.0281360000371933,-0.029875999316573143,0.08180499821901321
1784098594886360600,8.163360595703125,0.023051999509334564,-0.04379900172352791,0.055080000311136246
1784098594896445400,8.173445556640624,0.022783000022172928,-0.06015700101852417,0.04528199881315231
1784098594906530600,8.183530517578125,0.017681000754237175,-0.06686700135469437,0.021268000826239586
1784098594916615400,8.193615478515625,0.024598000571131706,-0.08322600275278091,-0.0072929998859763145
1784098594926700300,8.2037001953125,0.002781999995931983,-0.092399001121521,-0.026186000555753708
1784098594936785200,8.21378515625,0.004865000024437904,-0.09432200342416763,-0.04002400115132332
1784098594946870000,8.2238701171875,0.0069989999756217,-0.0843459963798523,-0.051468998193740845
1784098594956955000,8.233954833984376,-0.009998000226914883,-0.08638100326061249,-0.055716000497341156
1784098594967039700,8.244039794921875,-0.04606100171804428,-0.062206998467445374,-0.05993499979376793
1784098594977124600,8.25412451171875,-0.02218800038099289,-0.05731099843978882,-0.06409800052642822
1784098594987209500,8.26420947265625,-0.043779999017715454,-0.04287699982523918,-0.07798799872398376
1784098594997294300,8.27429443359375,-0.03410400077700615,-0.023869000375270844,-0.05353900045156479
1784098595007379200,8.284379150390626,-0.014871999621391296,-0.002435999922454357,-0.0603719986975193
1784098595017464000,8.294464111328125,-0.038711998611688614,0.01656400039792061,-0.05776200070977211
1784098595027549000,8.304548828125,-0.01690099947154522,0.023354999721050262,-0.043108999729156494
1784098595037633800,8.3146337890625,-0.00469199987128377,0.025390999391674995,-0.03342499956488609
1784098595047718700,8.32471875,-0.016499999910593033,0.03711700066924095,-0.038169000297784805
1784098595057803500,8.334803466796876,-0.006703000050038099,0.046365998685359955,-0.023729000240564346
1784098595067888400,8.344888427734375,0.0054339999333024025,0.04611099883913994,-0.01904500089585781
1784098595077973200,8.35497314453125,-0.035062000155448914,0.04101800173521042,-0.016697000712156296
1784098595088058000,8.36505810546875,-0.0013370000524446368,0.040702998638153076,0.0023950000759214163
1784098595098142700,8.375142822265625,-0.025136999785900116,0.04049000144004822,0.011703000403940678
1784098595108227600,8.3852275390625,-0.02979700081050396,0.023535000160336494,0.023435000330209732
1784098595118312400,8.3953125,-0.03210299834609032,0.023399999365210533,0.03269900009036064
1784098595128397300,8.405397216796874,-0.03206999972462654,0.016164999455213547,0.04669300094246864
1784098595138482400,8.415482421875,-0.04642299935221672,0.006564999930560589,0.0654740035533905
1784098595148567000,8.425567138671875,-0.03922799974679947,0.001753999968059361,0.06977099925279617
1784098595158652000,8.43565185546875,-0.039243001490831375,-0.010195000097155571,0.06212899833917618
1784098595168736800,8.44573681640625,-0.058389000594615936,-0.012605000287294388,0.07847700268030167
1784098595178821600,8.455821533203125,-0.046438999474048615,-0.022153999656438828,0.07804799824953079
1784098595188906500,8.465906494140626,-0.03208699822425842,-0.024531999602913857,0.06325799971818924
1784098595198991400,8.475991455078125,-0.03686299920082092,-0.017368000000715256,0.08926299959421158
1784098595209076200,8.486076171875,-0.022515999153256416,-0.029315000399947166,0.08876699954271317
1784098595219161000,8.4961611328125,-0.05121000111103058,-0.010219000279903412,0.07653599977493286
1784098595229246000,8.506245849609375,-0.029512999579310417,-0.008049000054597855,0.05247100070118904
1784098595239330800,8.516330810546876,-0.010304000228643417,-0.017709000036120415,0.054951999336481094
1784098595249415700,8.526415771484375,-0.046227000653743744,-0.005721000023186207,0.028717000037431717
1784098595259500500,8.53650048828125,-0.0006409999914467335,-0.027410000562667847,0.0050119999796152115
1784098595269585400,8.54658544921875,-0.02703399956226349,-0.012958000414073467,-0.011272000148892403
1784098595279670300,8.556670166015625,0.006521999835968018,-0.027377000078558922,-0.04427099972963333
1784098595289755100,8.566755126953124,0.023152999579906464,-0.022393999621272087,-0.08433300256729126
1784098595299840000,8.576840087890625,0.013492000289261341,-0.04141100123524666,-0.09062399715185165
1784098595309924900,8.5869248046875,0.01810000091791153,-0.03874000161886215,-0.11129800230264664
1784098595320009700,8.597009765625,0.0322830006480217,-0.04324899986386299,-0.13216300308704376
1784098595330094600,8.607094482421875,0.02733200043439865,-0.03341900184750557,-0.1288679987192154
1784098595340179500,8.617179443359374,0.05108899995684624,-0.04271399974822998,-0.13052800297737122
1784098595350264300,8.627264404296875,0.03407200053334236,-0.027956999838352203,-0.12266100198030472
1784098595360349200,8.63734912109375,0.04113199934363365,-0.022979000583291054,-0.10056500136852264
1784098595370434000,8.64743408203125,0.01706700026988983,-0.006031000055372715,-0.10024400055408478
1784098595380519000,8.657518798828125,0.026618000119924545,-0.005987000185996294,-0.08316600322723389
1784098595390603800,8.667603759765624,0.01938600093126297,0.0012669999850913882,-0.06628300249576569
1784098595400688600,8.677688720703125,0.0074629997834563255,0.0035929998848587275,-0.030263999477028847
1784098595410773500,8.6877734375,-0.002096999902278185,0.015536000020802021,-0.02086699940264225
1784098595420858400,8.6978583984375,-0.04033400118350983,0.010639999993145466,0.005142999812960625
1784098595430943200,8.707943115234375,0.0005530000198632479,0.007961999624967575,0.030990000814199448
1784098595441028000,8.718028076171874,-0.056807998567819595,0.012595999985933304,0.059126000851392746
1784098595451113000,8.728113037109376,-0.04222000017762184,0.0074629997834563255,0.07984299957752228
1784098595461197800,8.73819775390625,-0.06113399937748909,0.021462999284267426,0.1005759984254837
1784098595471282700,8.74828271484375,-0.06087600067257881,0.016279999166727066,0.13066600263118744
1784098595481367600,8.758367431640625,-0.07739400118589401,0.023090999573469162,0.13437500596046448
1784098595491452400,8.768452392578125,-0.05794699862599373,0.010670999996364117,0.14538800716400146
1784098595501537300,8.778537353515626,-0.07933499664068222,0.022391999140381813,0.15163199603557587
1784098595511622100,8.7886220703125,-0.07909499853849411,0.014845999889075756,0.14355799555778503
1784098595521707000,8.79870703125,-0.07175400108098984,0.0122079998254776,0.13562199473381042
1784098595531792000,8.8087919921875,-0.08119399845600128,0.014394000172615051,0.12070000171661377
1784098595541876700,8.818876708984375,-0.07384999841451645,-0.007400000002235174,0.09883599728345871
1784098595551961600,8.828961669921876,-0.04988100007176399,-0.009833999909460545,0.07480300217866898
1784098595562046500,8.83904638671875,-0.047513000667095184,-0.014582999981939793,0.05810600146651268
1784098595572131300,8.84913134765625,-0.037980999797582626,-0.021696999669075012,0.01996699906885624
1784098595582216000,8.8592158203125,-0.021306000649929047,-0.02875100076198578,-0.01068899966776371
1784098595592300800,8.86930078125,-0.009469999931752682,-0.035725001245737076,-0.038757000118494034
1784098595602386000,8.879385986328124,0.01674499921500683,-0.03553900122642517,-0.06185999885201454
1784098595612470800,8.889470703125,0.004546999931335449,-0.03997800126671791,-0.08735799789428711
1784098595622555400,8.899555419921874,0.04269599914550781,-0.044520001858472824,-0.11024200171232224
1784098595632640500,8.909640625,0.028026999905705452,-0.039267998188734055,-0.11628399789333344
1784098595642725400,8.919725341796875,0.051708001643419266,-0.04365700110793114,-0.13922099769115448
1784098595652810000,8.92981005859375,0.03702399879693985,-0.038380999118089676,-0.14779600501060486
1784098595662894800,8.939894775390625,0.0799029991030693,-0.040442001074552536,-0.1516149938106537
1784098595672980000,8.94997998046875,0.04608200117945671,-0.03518899902701378,-0.14834900200366974
1784098595683064600,8.960064697265626,0.06985600292682648,-0.02295999974012375,-0.13555200397968292
1784098595693149400,8.9701494140625,0.057707998901605606,-0.0226879995316267,-0.12059099972248077
1784098595703234300,8.980234375,0.045643001794815063,-0.01296399999409914,-0.11056900024414062
1784098595713319200,8.990319091796875,0.028836999088525772,-0.00571200018748641,-0.07920800149440765
1784098595723404000,9.000404052734375,0.026450999081134796,0.00145800004247576,-0.05522499978542328
1784098595733489000,9.010489013671876,0.014511999674141407,-0.000986000057309866,-0.03148199990391731
1784098595743573800,9.02057373046875,-0.01411100011318922,0.003640000009909272,0.008871999569237232
1784098595753658600,9.03065869140625,-0.033149998635053635,0.015433000400662422,0.041877999901771545
1784098595763743500,9.040743408203125,-0.03775300085544586,0.005568999797105789,0.0674929991364479
1784098595773828400,9.050828369140625,-0.06392200291156769,0.022072000429034233,0.0977339968085289
1784098595783913200,9.060913330078124,-0.06605300307273865,0.0192709993571043,0.11823700368404388
1784098595793998000,9.070998046875,-0.049091000109910965,-0.00019500000053085387,0.14585000276565552
1784098595804083000,9.0810830078125,-0.12559300661087036,0.04751100018620491,0.17106999456882477
1784098595814167800,9.091167724609376,-0.012779000215232372,-0.003203999949619174,0.0884459987282753
1784098595824252700,9.101252685546875,-0.1922529935836792,0.06129400059580803,0.10687600076198578
1784098595834337500,9.111337646484374,-0.045687999576330185,0.019809000194072723,0.14924399554729462
1784098595844422400,9.12142236328125,-0.0862250030040741,0.007583000231534243,0.13397499918937683
1784098595854507300,9.13150732421875,-0.04297899827361107,-0.0022239999379962683,0.12367500364780426
1784098595864592100,9.141592041015626,-0.04533400014042854,-0.007071999832987785,0.08970499783754349
1784098595874676700,9.1516767578125,-0.03339099884033203,-0.004635999910533428,0.07282699644565582
1784098595884761900,9.161761962890624,-0.01901100017130375,-0.011839999817311764,0.07760299742221832
1784098595894846500,9.171846435546875,-0.03825899958610535,-0.011700999923050404,-0.0013010000111535192
1784098595904931300,9.181931396484375,0.007236000150442123,-0.030858000740408897,-0.005574999842792749
1784098595915016200,9.19201611328125,-0.014449999667704105,-0.028251999989151955,-0.005092000123113394
1784098595925101000,9.20210107421875,0.026102999225258827,-0.03520900011062622,-0.0643789991736412
1784098595935186000,9.21218603515625,0.016279999166727066,-0.03722900152206421,-0.07310199737548828
1784098595945270800,9.222270751953126,0.044835999608039856,-0.04653799906373024,-0.0674929991364479
1784098595955355600,9.232355712890625,0.03260999917984009,-0.04135800153017044,-0.10028500109910965
1784098595965440500,9.2424404296875,0.04915200173854828,-0.03384299948811531,-0.11619900166988373
1784098595975525600,9.252525634765625,0.05371300131082535,-0.04546700045466423,-0.09370700269937515
1784098595985610500,9.262610595703125,0.0366859994828701,-0.03068999946117401,-0.11202800273895264
1784098595995695400,9.2726953125,0.04851999878883362,-0.028085999190807343,-0.11852499842643738
1784098596005780000,9.282780029296875,0.053158000111579895,-0.023065000772476196,-0.09630999714136124
1784098596015865000,9.292864990234374,0.02912900038063526,-0.013352000154554844,-0.09338899701833725
1784098596025949700,9.30294970703125,0.036299001425504684,-0.006144999992102385,-0.09296800196170807
1784098596036034600,9.31303466796875,0.007561999838799238,-0.006132999900728464,-0.06396500021219254
1784098596046119400,9.323119384765626,0.014790999703109264,-0.010993000119924545,-0.04466100037097931
1784098596056204300,9.333204345703125,-0.013918000273406506,0.0033420000690966845,-0.03990299999713898
1784098596066289200,9.3432890625,-0.013801000081002712,0.0055610002018511295,-0.0016550000291317701
1784098596076374000,9.3533740234375,-0.03517000004649162,0.010076000355184078,0.02922699972987175
1784098596086459000,9.363458984375,-0.034995000809431076,0.007414000108838081,0.0334319993853569
1784098596096543700,9.373543701171876,-0.05403999984264374,0.016822999343276024,0.05915899947285652
1784098596106628600,9.383628662109375,-0.04183800145983696,0.02844100072979927,0.08481000363826752
1784098596116713500,9.39371337890625,-0.05602100118994713,0.025767000392079353,0.09120400249958038
1784098596126798300,9.40379833984375,-0.07252100110054016,0.013398000039160252,0.10240499675273895
1784098596136883200,9.41388330078125,-0.065140001475811,0.0178810004144907,0.10877399891614914
1784098596146968000,9.423968017578124,-0.06248899921774864,0.007914000190794468,0.11040300130844116
1784098596157053000,9.434052978515625,-0.0814799964427948,0.005268999841064215,0.10002099722623825
1784098596167137800,9.4441376953125,-0.07410500198602676,-0.006994999945163727,0.08748500049114227
1784098596177222700,9.45422265625,-0.07874900102615356,-0.021580999717116356,0.0870869979262352
1784098596187307500,9.4643076171875,-0.08587799966335297,-0.031238000839948654,0.08683700114488602
1784098596197392400,9.474392333984374,-0.045138999819755554,-0.04566299915313721,0.06977099925279617
1784098596207477200,9.484477294921875,-0.0691630020737648,-0.04314500093460083,0.057659998536109924
1784098596217561900,9.494561767578125,-0.02848999947309494,-0.057468000799417496,0.03850200027227402
1784098596227646700,9.504646728515626,-0.026246000081300735,-0.04527299851179123,0.02656099945306778
1784098596237731800,9.51473193359375,-0.014391999691724777,-0.04270000010728836,0.010081999935209751
1784098596247816400,9.52481640625,0.014204000122845173,-0.04010400176048279,0.0055320002138614655
1784098596257901300,9.5349013671875,0.021265000104904175,-0.023158999159932137,-0.015690000727772713
1784098596267986200,9.544986083984375,0.03309300169348717,-0.010970000177621841,-0.034384001046419144
1784098596278071000,9.555071044921876,0.013868999667465687,-0.013249999843537807,-0.04569200053811073
1784098596288156000,9.565156005859375,0.03782600164413452,-0.0012989999959245324,-0.06644599884748459
1784098596298240800,9.57524072265625,0.011436999775469303,0.0083619998767972,-0.08012299984693527
1784098596308325600,9.58532568359375,0.013915999792516232,0.013028999790549278,-0.08173999935388565
1784098596318410500,9.595410400390625,0.01155600044876337,0.017772000283002853,-0.10247299820184708
1784098596328495400,9.605495361328124,0.0068789999932050705,0.010427000001072884,-0.10649099946022034
1784098596338580200,9.615580322265625,0.004585999995470047,0.01746699959039688,-0.10099299997091293
1784098596348665000,9.6256650390625,0.021469000726938248,0.012497000396251678,-0.1100120022892952
1784098596358750000,9.63575,0.002391000045463443,0.009991999715566635,-0.09512100368738174
1784098596368834800,9.645834716796875,0.01919800043106079,0.026683999225497246,-0.06835199892520905
1784098596378919400,9.65591943359375,0.004896000027656555,0.021803999319672585,-0.06808900088071823
1784098596389004500,9.666004638671875,-0.0045460001565515995,0.03596799820661545,-0.0487309992313385
1784098596399089200,9.676089111328125,-0.013987000100314617,0.03576600179076195,-0.03197700157761574
1784098596409174000,9.686174072265626,-0.021019000560045242,0.025960000231862068,-0.015269000083208084
1784098596419259000,9.6962587890625,-0.03530599921941757,0.009081000462174416,0.0060339998453855515
1784098596429343700,9.70634375,-0.011308000423014164,-0.007765999995172024,0.02714500017464161
1784098596439428600,9.7164287109375,-0.020982999354600906,-0.002833999926224351,0.02911500073969364
1784098596449513500,9.726513427734375,-0.03301899880170822,-0.026683000847697258,0.04304400086402893
1784098596459598300,9.736598388671876,-0.028282999992370605,-0.03379099816083908,0.06167399883270264
1784098596469683200,9.74668310546875,-0.02363399975001812,-0.04315900057554245,0.07309000194072723
1784098596479768000,9.75676806640625,-0.021418999880552292,-0.054868001490831375,0.06513500213623047
1784098596489853000,9.76685302734375,-0.01678900048136711,-0.04506000131368637,0.08610600233078003
1784098596499937500,9.7769375,-0.007348999846726656,-0.06401000171899796,0.07581999897956848
1784098596510022400,9.7870224609375,0.009196000173687935,-0.051725998520851135,0.07035800069570541
1784098596520107500,9.797107421875,-0.00776899978518486,-0.04902299866080284,0.06510599702596664
1784098596530192100,9.807192138671875,0.013670000247657299,-0.046470001339912415,0.062456000596284866
1784098596540277000,9.817277099609376,-0.03195999935269356,-0.029500000178813934,0.06452500075101852
1784098596550361900,9.82736181640625,0.04704499989748001,-0.01752600073814392,0.04269599914550781
1784098596560446700,9.83744677734375,-0.017659999430179596,-0.03658600151538849,0.04033400118350983
1784098596570531600,9.847531494140625,0.011076999828219414,0.004102999810129404,0.042688000947237015
1784098596580616400,9.857616455078125,0.04460800066590309,-0.015068000182509422,0.023391999304294586
1784098596590701300,9.867701416015626,-0.03205600008368492,0.0017659999430179596,0.006785999983549118
1784098596600786200,9.8777861328125,0.01118599995970726,-0.005636999849230051,0.007046000100672245
1784098596610871000,9.88787109375,-0.03186599910259247,-0.012881999835371971,-0.007149000186473131
1784098596620956000,9.897955810546875,-0.010212000459432602,0.006115000229328871,-0.03328299894928932
1784098596631040800,9.908040771484375,-0.0005159999709576368,0.020304000005126,-0.028070999309420586
1784098596641125600,9.918125732421874,-0.02916399948298931,-0.013334999792277813,-0.02768000029027462
1784098596651210500,9.92821044921875,-0.007575999945402145,0.024914000183343887,-0.039406999945640564
1784098596661295400,9.93829541015625,-0.009920000098645687,0.005685000214725733,-0.04157299920916557
1784098596671380200,9.948380126953126,-0.03625600039958954,0.03681199997663498,-0.05800199881196022
1784098596681465000,9.958465087890625,-0.016961999237537384,0.027024000883102417,-0.06475000083446503
1784098596691550000,9.968550048828124,-0.05034499987959862,0.010067000053822994,-0.0451200008392334
1784098596701634800,9.978634765625,0.0024759999942034483,0.019422000274062157,-0.04730600118637085
1784098596711719400,9.988719482421875,-0.009477999992668629,0.0026390000712126493,-0.0542679987847805
1784098596721804500,9.998804443359376,-0.002305000089108944,0.05532899871468544,-0.018031999468803406
1784098596731889200,10.00888916015625,0.026494000107049942,0.0025510000996291637,-0.04427500069141388
1784098596741974000,10.01897412109375,-0.0716869980096817,-0.0022009999956935644,-0.01286299992352724
1784098596752059000,10.029058837890625,0.04099100083112717,-0.012009999714791775,-0.005791999865323305
1784098596762143700,10.039143798828125,-0.0333780013024807,-0.016573000699281693,-0.022769000381231308
1784098596772228600,10.049228515625,-0.011792999692261219,-0.01662999950349331,-0.00824899971485138
1784098596782313500,10.0593134765625,-0.03346100077033043,-0.01405400037765503,0.010790999978780746
1784098596792398300,10.0693984375,-0.03826500102877617,-0.059526000171899796,0.02731800079345703
1784098596802483200,10.079483154296875,-0.031101999804377556,-0.033160001039505005,0.03655799850821495
1784098596812568000,10.089568115234375,0.019099999219179153,-0.07853999733924866,0.01940299943089485
1784098596822653000,10.09965283203125,-0.06733699887990952,-0.025499999523162842,0.0550290010869503
1784098596832737800,10.10973779296875,0.040417999029159546,-0.05665399879217148,0.056967999786138535
1784098596842822700,10.11982275390625,-0.12015599757432938,-0.0659869983792305,0.0326480008661747
1784098596852907500,10.129907470703126,0.030856000259518623,-0.037526000291109085,0.07067199796438217
1784098596862992100,10.1399921875,0.004253000020980835,-0.03234099969267845,0.03438200056552887
1784098596873077000,10.150076904296874,-0.01498000044375658,-0.03221900016069412,0.03198400139808655
1784098596883161900,10.160161865234375,-0.005504999775439501,-0.010518000461161137,0.055792998522520065
1784098596893246700,10.170246826171875,-0.01268799975514412,-0.0033370000310242176,0.038750000298023224
1784098596903331600,10.18033154296875,0.030501000583171844,-0.008268999867141247,0.02426699921488762
1784098596913416400,10.19041650390625,0.025652000680565834,0.010975999757647514,0.0003859999997075647
1784098596923501300,10.200501220703124,0.0017130000051110983,0.0037879999727010727,0.012508999556303024
1784098596933586200,10.210586181640625,-0.00532200001180172,0.022722000256180763,0.005462000146508217
1784098596943671000,10.220671142578125,0.013929000124335289,0.015394000336527824,-0.0015399999683722854
1784098596953756000,10.230755859375,-0.01709499955177307,0.02961299940943718,-0.013345999643206596
1784098596963840800,10.2408408203125,0.026141000911593437,0.02221900038421154,-0.029923999682068825
1784098596973925400,10.25092529296875,-0.03612999990582466,0.02225399948656559,-0.02966899983584881
1784098596984010200,10.26101025390625,-0.021549999713897705,0.017142999917268753,-0.019835999235510826
1784098596994095000,10.27109521484375,-0.026283999904990196,0.026637999340891838,-0.03161400184035301
1784098597004180000,10.281179931640626,-0.016555000096559525,0.007259000092744827,-0.02909800037741661
1784098597014264800,10.291264892578125,-0.047662001103162766,0.01202400028705597,-0.01932699978351593
1784098597024349700,10.301349609375,-0.006928000133484602,-0.004782999865710735,-0.02871299907565117
1784098597034434300,10.311434326171875,-0.030906999483704567,-0.011908999644219875,-0.021425999701023102
1784098597044519200,10.321519287109375,-0.026128999888896942,-0.0023159999400377274,-0.02609799988567829
1784098597054604000,10.33160400390625,-0.021275000646710396,-0.016777999699115753,-0.028403999283909798
1784098597064689000,10.34168896484375,-0.00455900002270937,-0.02389400079846382,-0.016184000298380852
1784098597074773800,10.351773681640625,-0.011897999793291092,-0.033236000686883926,-0.01601400040090084
1784098597084858600,10.361858642578126,-0.019190000370144844,-0.04504000023007393,-0.0016540000215172768
1784098597094943500,10.371943603515625,-0.02889999933540821,-0.032871998846530914,-0.013544999994337559
1784098597105028400,10.3820283203125,0.006994999945163727,-0.02805499918758869,0.0008290000259876251
1784098597115113200,10.39211328125,-0.024261999875307083,-0.02785700000822544,0.010235000401735306
1784098597125198000,10.402197998046875,-0.01954299956560135,-0.020566999912261963,0.0005169999785721302
1784098597135283000,10.412282958984376,-0.019545000046491623,-0.02775000035762787,0.029078999534249306
1784098597145367800,10.422367919921875,-0.009991000406444073,-0.018140999600291252,0.03121200017631054
1784098597155452700,10.43245263671875,-0.019581999629735947,-0.039671000093221664,0.014090999960899353
1784098597165537300,10.442537353515625,-0.005274000111967325,-0.027615999802947044,0.04744400084018707
1784098597175622400,10.452622314453125,0.008981999941170216,-0.029850000515580177,0.030220000073313713
1784098597185707000,10.46270703125,-0.014984999783337116,-0.02741999924182892,0.0253090001642704
1784098597195792000,10.4727919921875,-0.012620000168681145,0.006142999976873398,0.020371999591588974
1784098597205876700,10.482876708984374,-0.000526999996509403,-0.01558700017631054,0.02994599938392639
1784098597215961600,10.492961669921876,-0.012520999647676945,-0.0011869999580085278,0.0059710000641644
1784098597226046500,10.50304638671875,0.025885000824928284,-0.0013389999512583017,0.030031999573111534
1784098597236131300,10.51313134765625,-0.005270000081509352,-0.00607800018042326,0.020332999527454376
1784098597246216000,10.5232158203125,0.00431999983265996,0.010658999904990196,0.010843000374734402
1784098597256300800,10.53330078125,0.013939999975264072,0.017774999141693115,0.006053999997675419
1784098597266386000,10.543385986328126,-0.009955000132322311,0.015313000418245792,0.008477999828755856
1784098597276470500,10.553470458984375,0.004495000001043081,0.024762999266386032,-0.00572599982842803
1784098597286555400,10.563555419921874,0.004521999973803759,0.019934000447392464,-0.0032279998995363712
1784098597296640300,10.57364013671875,-0.01934799924492836,0.024615999311208725,-0.00559299997985363
1784098597306725000,10.58372509765625,-0.004852999933063984,0.017237000167369843,-0.012729999609291553
1784098597316810000,10.59381005859375,-0.026319000869989395,0.009933999739587307,-0.012728000059723854
1784098597326894800,10.603894775390625,-0.021431000903248787,0.009782000444829464,-0.01281300000846386
1784098597336979700,10.613979736328124,-0.031032999977469444,0.0026370000559836626,-0.02472200058400631
1784098597347064300,10.624064208984375,-0.028606999665498734,-0.006984000094234943,-0.017315000295639038
1784098597357149200,10.634149169921875,-0.03818599879741669,-0.016558999195694923,-0.02198299951851368
1784098597367234000,10.644234130859376,-0.026283999904990196,-0.018848000094294548,-0.017044000327587128
1784098597377319000,10.65431884765625,-0.03829300031065941,-0.021181000396609306,-0.019348999485373497
1784098597387403800,10.66440380859375,-0.026347000151872635,-0.02593199908733368,-0.016851000487804413
1784098597397488600,10.674488525390625,-0.031196000054478645,-0.025839999318122864,-0.021462999284267426
1784098597407573500,10.684573486328125,-0.021612999960780144,-0.03542700037360191,-0.011769000440835953
1784098597417658400,10.694658447265626,-0.021710999310016632,-0.02330699935555458,-0.01650100015103817
1784098597427743200,10.7047431640625,-0.007408000063151121,-0.028000999242067337,-0.01632699929177761
1784098597437828000,10.714828125,-0.009903999976813793,-0.018268000334501266,-0.004271999932825565
1784098597447912700,10.72491259765625,0.001993000041693449,-0.022950999438762665,0.005166000220924616
1784098597457997800,10.734997802734375,0.01152000017464161,-0.025270000100135803,-0.004608000162988901
1784098597468082700,10.745082763671874,0.013779999688267708,-0.013101999647915363,0.002437999937683344
1784098597478167300,10.755167236328125,0.011342000216245651,-0.017823999747633934,0.011832999996840954
1784098597488252200,10.765252197265625,0.01607700064778328,-0.015351000241935253,0.011593000032007694
1784098597498337300,10.775337158203126,0.03038799948990345,-0.0056929998099803925,0.013895000331103802
1784098597508422100,10.785422119140625,0.011180000379681587,0.0015689999563619494,0.016123000532388687
1784098597518506800,10.7955068359375,0.028001999482512474,-0.0033140000887215137,0.02303900010883808
1784098597528592000,10.805591796875,-0.0007699999841861427,-0.003249000059440732,0.020478999242186546
1784098597538676500,10.815676513671875,0.004087999928742647,0.0014299999456852674,0.01787799969315529
1784098597548761300,10.82576123046875,-0.012653999961912632,0.0014029999729245901,0.01065099984407425
1784098597558846200,10.83584619140625,-0.005421000067144632,-0.00824899971485138,0.025104999542236328
1784098597568931000,10.84593115234375,-0.022172000259160995,0.0061039999127388,0.010796000249683857
1784098597579016000,10.856015869140625,-0.012512999586760998,0.0035880000796169043,0.008402000181376934
1784098597589100800,10.866100830078125,-0.031610000878572464,0.00829199980944395,0.010811000131070614
1784098597599185700,10.876185546875,-0.033955998718738556,0.0034290000330656767,0.013206000439822674
1784098597609270500,10.8862705078125,-0.02912900038063526,0.005764999892562628,0.006008999887853861
1784098597619355100,10.896355224609374,-0.03382299840450287,0.01041099987924099,0.003645000047981739
1784098597629440000,10.90643994140625,-0.02412799932062626,0.0030519999563694,0.0036909999325871468
1784098597639524900,10.91652490234375,-0.03368600085377693,0.007813000120222569,-0.005840000230818987
1784098597649609700,10.926609619140624,-0.028845999389886856,0.00534099992364645,-0.008186000399291515
1784098597659694600,10.936694580078125,-0.024024000391364098,-0.004286999814212322,0.001509999972768128
1784098597669779500,10.946779541015625,-0.019178999587893486,-0.0019759999122470617,-0.017583999782800674
1784098597679864300,10.9568642578125,-0.021518999710679054,-0.0020550000481307507,-0.012616000138223171
1784098597689949200,10.96694921875,-0.009549999609589577,-0.014023999683558941,-0.012555000372231007
1784098597700034000,10.977033935546874,-0.023912999778985977,-0.014020999893546104,-0.01001300010830164
1784098597710119000,10.987118896484375,0.0024480000138282776,-0.023638999089598656,-0.014581000432372093
1784098597720203800,10.997203857421875,-0.002449000021442771,-0.02586599998176098,-0.016757000237703323
1784098597730288600,11.00728857421875,0.007079000119119883,-0.028186000883579254,-0.004610999953001738
1784098597740373200,11.017373291015625,0.002216000109910965,-0.03286200016736984,-0.016485000029206276
1784098597750458000,11.0274580078125,0.014109999872744083,-0.02556000091135502,-0.013918000273406506
1784098597760543000,11.03754296875,-0.000391999987186864,-0.03253500163555145,-0.011367999948561192
1784098597770627800,11.0476279296875,0.011504000052809715,-0.025242000818252563,-0.013709000311791897
1784098597780712700,11.057712646484376,0.013824000023305416,-0.02034199982881546,-0.011247999966144562
1784098597790797600,11.067797607421875,0.001787999994121492,-0.017851000651717186,0.0007149999728426337
1784098597800882400,11.07788232421875,0.011328999884426594,-0.010618000291287899,0.000691999972332269
1784098597810967300,11.08796728515625,0.008906000293791294,-0.010571000166237354,0.0006089999806135893
1784098597821052200,11.09805224609375,-0.0006960000027902424,0.0014400000218302011,0.0053159999661147594
1784098597831137000,11.108136962890624,-0.0055160000920295715,0.006273999810218811,0.01244600024074316
1784098597841222000,11.118221923828125,0.008898000232875347,0.0014100000262260437,0.01707799918949604
1784098597851306500,11.128306396484374,-0.022218000143766403,0.010972999967634678,0.019345000386238098
1784098597861391600,11.1383916015625,-0.007815999910235405,0.008522000163793564,0.024080000817775726
1784098597871476200,11.148476318359375,-0.02690800093114376,0.013218999840319157,0.021601999178528786
1784098597881561000,11.15856103515625,-0.019613999873399734,0.008263000287115574,0.009650999680161476
1784098597891646000,11.16864599609375,-0.033952999860048294,0.010618999600410461,0.02168699912726879
1784098597901730800,11.178730712890625,-0.026653999462723732,-0.0015300000086426735,0.02634900063276291
1784098597911815700,11.188815673828126,-0.03622100129723549,0.005636000074446201,0.011827999725937843
1784098597921900500,11.198900634765625,-0.026593999937176704,-0.004013999830931425,0.016611000522971153
1784098597931985400,11.2089853515625,-0.03610900044441223,-0.001711999997496605,0.009391999803483486
1784098597942070300,11.2190703125,-0.028898000717163086,-0.01133199967443943,0.01643799990415573
1784098597952155000,11.22915478515625,-0.019336000084877014,-0.013705999590456486,0.009220999665558338
1784098597962240000,11.239239990234376,-0.0169220007956028,-0.011339999735355377,0.014019999653100967
1784098597972324600,11.24932470703125,-0.016961000859737396,-0.013679999858140945,0.0019420000026002526
1784098597982409500,11.259409423828124,-0.017002999782562256,-0.016008000820875168,-0.0027890000492334366
1784098597992494300,11.269494384765625,-0.00029399999766610563,-0.02550799958407879,-0.009885000064969063
1784098598002579200,11.2795791015625,0.001990000018849969,-0.018160000443458557,-0.00966699980199337
1784098598012664000,11.2896640625,0.013868000358343124,-0.015625,-0.016720000654459
1784098598022749000,11.2997490234375,0.00903099961578846,-0.013152999803423882,-0.01654599979519844
1784098598032833800,11.309833740234374,-0.0006380000268109143,-0.020197000354528427,-0.014038000255823135
1784098598042918400,11.31991845703125,0.006506999954581261,-0.022537000477313995,-0.013793000020086765
1784098598053003300,11.330003173828125,0.011239999905228615,-0.01526699960231781,-0.01603199914097786
1784098598063088000,11.340088134765624,0.004011999815702438,-0.017594000324606895,-0.01116199977695942
1784098598073173000,11.350173095703125,0.020733999088406563,-0.017535999417304993,-0.01826399937272072
1784098598083257900,11.3602578125,-0.0008820000221021473,-0.010247999802231789,-0.010986999608576298
1784098598093342700,11.3703427734375,0.0062939999625086784,-0.012632999569177628,-0.0014179999707266688
1784098598103427600,11.380427490234375,0.0014769999543204904,-0.0078039998188614845,-0.01345799956470728
1784098598113512400,11.390512451171874,-0.0033140000887215137,-0.010192000307142735,0.0033080000430345535
1784098598123597300,11.400597412109375,-0.012893999926745892,-0.0030070000793784857,-0.0016070000128820539
1784098598133682200,11.41068212890625,-0.015250000171363354,0.011300000362098217,0.012690000236034393
1784098598143766800,11.420766845703126,-0.019954999908804893,0.001597000053152442,0.017319999635219574
1784098598153851600,11.4308515625,-0.027073999866843224,0.001500000013038516,0.014798000454902649
1784098598163936500,11.4409365234375,-0.019871000200510025,0.00865199975669384,0.014685999602079391
1784098598174021400,11.451021484375,-0.04139399901032448,-0.0009640000062063336,0.019449999555945396
1784098598184106200,11.461106201171875,-0.024593999609351158,-0.010603000409901142,0.014461999759078026
1784098598194191000,11.471191162109376,-0.03652599826455116,-0.00108299998100847,0.021622000262141228
1784098598204276000,11.48127587890625,-0.024467000737786293,-0.003611000021919608,0.014371000230312347
1784098598214360800,11.49136083984375,-0.026861999183893204,-0.00839999970048666,0.021531999111175537
1784098598224445700,11.50144580078125,-0.026871999725699425,-0.0012039999710395932,0.014135999605059624
1784098598234530600,11.511530517578125,-0.029254000633955002,-0.001221999991685152,0.014115000143647194
1784098598244615400,11.521615478515624,-0.010084999725222588,-0.008429000154137611,0.018825000151991844
1784098598254700300,11.5317001953125,-0.012462999671697617,0.0011220000451430678,0.011505000293254852
1784098598264785200,11.54178515625,-0.005289999768137932,-0.0156230004504323,0.0018360000103712082
1784098598274870000,11.5518701171875,-0.012543999589979649,-0.010726000182330608,0.004286999814212322
1784098598284955000,11.561954833984375,0.006564999930560589,-0.010660000145435333,0.009116999804973602
1784098598295039500,11.57203955078125,-0.010273999534547329,-0.02251099981367588,-0.002841999987140298
1784098598305124400,11.582124267578125,0.008855000138282776,-0.020078999921679497,0.009215000085532665
1784098598315209200,11.592209228515625,0.004013000056147575,-0.019998999312520027,-0.0028029999230057
1784098598325294000,11.602294189453126,0.006304000038653612,-0.024630999192595482,-0.007447999902069569
1784098598335379000,11.61237890625,0.020548999309539795,-0.01247899979352951,-0.012121000327169895
1784098598345463800,11.6224638671875,0.0060720001347362995,-0.019491000100970268,-0.004794000182300806
1784098598355548700,11.632548583984375,-0.001155999954789877,-0.01942100003361702,-0.009483999572694302
1784098598365633500,11.642633544921875,-0.0011879999656230211,-0.016976000741124153,-0.01414399966597557
1784098598375718400,11.652718505859376,0.0011780000058934093,-0.007360999938100576,-0.021257000043988228
1784098598385803300,11.66280322265625,-0.006004000082612038,-0.009751000441610813,-0.016411999240517616
1784098598395887900,11.672887939453124,0.003575999988242984,-0.00018200000340584666,-0.013933000154793262
1784098598405972700,11.68297265625,-0.013110999949276447,0.002102999947965145,-0.013776999898254871
1784098598416057600,11.6930576171875,-0.008268999867141247,-0.007552000228315592,-0.011460999958217144
1784098598426142500,11.703142578125,-0.02022399939596653,0.009182999841868877,-0.011466000229120255
1784098598436227300,11.713227294921875,-0.017802000045776367,0.0019570000004023314,-0.004288999829441309
1784098598446312000,11.72331201171875,-0.029766999185085297,0.0019519999623298645,0.0028429999947547913
1784098598456396800,11.733396728515626,-0.020106999203562737,-0.00056900002527982,0.00762399984523654
1784098598466481700,11.743481689453125,-0.03447199985384941,0.0018230000277981162,0.007557000033557415
1784098598476566500,11.75356640625,-0.027194999158382416,0.00646999990567565,0.007431999780237675
1784098598486651400,11.7636513671875,-0.03189200162887573,0.003936000168323517,0.014549000188708305
1784098598496736300,11.773736328125,-0.03179800137877464,-0.0057830000296235085,0.004803000018000603
1784098598506821000,11.783821044921876,-0.027000999078154564,0.0037799999117851257,0.011966000311076641
1784098598516906000,11.793906005859375,-0.022128000855445862,-0.0035290000960230827,0.01908300071954727
1784098598526990800,11.803990966796874,-0.012555999681353569,-0.008310999721288681,0.01655000075697899
1784098598537075700,11.81407568359375,-0.014986000023782253,-0.005863000173121691,0.016513999551534653
1784098598547160300,11.824160400390625,-0.0030410001054406166,-0.008220000192523003,0.016390999779105186
1784098598557245200,11.8342451171875,-0.019853999838232994,-0.010532000102102757,0.013873999938368797
1784098598567330000,11.844330078125,0.004056000150740147,-0.015277000144124031,0.009066999889910221
1784098598577415000,11.854414794921874,-0.010395999997854233,-0.010354000143706799,0.009135999716818333
1784098598587499800,11.864499755859375,0.003920999821275473,-0.012678000144660473,0.018724000081419945
1784098598597584600,11.874584716796875,0.006233000196516514,-0.0077680000104010105,0.004220999777317047
1784098598607669500,11.88466943359375,0.011009999550879002,-0.022112000733613968,0.0018680000212043524
1784098598617754400,11.89475439453125,0.0037040000315755606,-0.012350999750196934,0.00431900005787611
1784098598627839200,11.904839111328124,0.010865000076591969,-0.01231900043785572,-0.005216000135987997
1784098598637923800,11.914923828125,0.003647000063210726,-0.012264999561011791,0.002065999899059534
1784098598648008700,11.9250087890625,-0.0011609999928623438,-0.019415000453591347,-0.005059999879449606
1784098598658093600,11.935093505859374,0.008382000029087067,-0.01936499960720539,-0.0049600000493228436
1784098598668178400,11.945178466796875,0.003541999962180853,-0.012103999964892864,-0.009649000130593777
1784098598678263300,11.95526318359375,-0.008448000065982342,-0.01207400020211935,-0.0071840002201497555
1784098598688348200,11.96534814453125,-0.006051999982446432,-0.009682999923825264,-0.007158000022172928
1784098598698433000,11.97543310546875,-0.02041199989616871,-0.004902000073343515,-0.00952600035816431
1784098598708518000,11.985517822265624,-0.022760000079870224,-0.007366999983787537,-0.009484999813139439
1784098598718602800,11.995602783203125,-0.013081000186502934,-0.0027310000732541084,-0.011838000267744064
1784098598728687400,12.005687255859375,-0.025011999532580376,-0.005183999892324209,-0.014175999909639359
1784098598738772200,12.015772216796876,-0.02022700011730194,-0.005177000071853399,-0.009317000396549702
1784098598748857000,12.025857177734375,-0.02975899912416935,-0.0004579999949783087,-0.006883000023663044
1784098598758942000,12.03594189453125,-0.027344999834895134,-0.010064000263810158,-0.006858000066131353
1784098598769026800,12.04602685546875,-0.036935001611709595,-0.01004400011152029,-0.002044999971985817
1784098598779111700,12.056111572265625,-0.02495799958705902,0.001917000045068562,0.0003429999924264848
1784098598789196500,12.066196533203126,-0.032124001532793045,-0.0005019999807700515,0.00025099999038502574
1784098598799281400,12.076281494140625,-0.017678000032901764,-0.007807999849319458,0.007342999801039696
1784098598809366300,12.0863662109375,-0.015250000171363354,-0.003068000078201294,0.0026229999493807554
1784098598819451100,12.096451171875,-0.005690999794751406,-0.010226000100374222,0.0001230000052601099
1784098598829536000,12.106535888671875,-0.010534999892115593,-0.0053530000150203705,0.004908999893814325
1784098598839620900,12.116620849609374,-0.005778999999165535,-0.0029100000392645597,0.000058000001445179805
1784098598849705700,12.126705810546875,-0.0034209999721497297,-0.00046400001156143844,0.00954500027000904
1784098598859790600,12.13679052734375,0.0013360000448301435,-0.009991999715566635,0.009541000239551067
1784098598869875200,12.146875244140626,0.008448000065982342,-0.007495000027120113,0.009449999779462814
1784098598879960000,12.1569599609375,-0.005934000015258789,-0.007470000069588423,0.004511999897658825
1784098598890045000,12.167044921875,0.01796099916100502,-0.00979200005531311,0.011664999648928642
1784098598900129800,12.1771298828125,-0.0012339999666437507,-0.007333999965339899,0.014041000045835972
1784098598910214700,12.187214599609375,0.010679000057280064,-0.004856999963521957,0.0020379999186843634
